time,ax,ay,az,gx,gy,gz
s64,f10000(u16),f10000(u16),f10000(u16),f10000(u16),f10000(u16),f10000(u16)
1631440562664, -0.23463176, 2.0207062, 10.249877, 0.16050485, 0.11629347, 0.029321533
1631440562666, -0.260968, 2.054225, 10.111013, 0.19349156, 0.14928019, 0.027488936
1631440562668, -0.2633622, 2.0733786, 10.043976, 0.19960022, 0.15538885, 0.02687807
1631440562670, -0.272939, 2.0901382, 9.976937, 0.20815234, 0.16088663, 0.02687807
1631440562672, -0.31124622, 2.1308396, 9.656115, 0.21853705, 0.16882788, 0.025045475
1631440562674, -0.31124622, 2.1308396, 9.656115, 0.21853705, 0.17188221, 0.02687807
1631440562680, -0.36631286, 2.219425, 9.320927, 0.19837849, 0.15477799, 0.028710667
1631440562681, -0.37828386, 2.2290018, 9.244312, 0.18860464, 0.14683673, 0.029932396
1631440562684, -0.4165911, 2.2601264, 9.122208, 0.1684461, 0.13034338, 0.031154128
1631440562686, -0.44532153, 2.2744915, 9.028834, 0.14340061, 0.11323915, 0.03359759
1631440562688, -0.46926352, 2.2840683, 8.983344, 0.12996158, 0.103465304, 0.034208454
1631440562689, -0.50038815, 2.3008277, 8.894758, 0.100029185, 0.08636107, 0.035430185
1631440562694, -0.5243302, 2.291251, 8.806173, 0.046883907, 0.049098294, 0.039095376
1631440562696, -0.5267244, 2.291251, 8.79899, 0.013897184, 0.02649628, 0.04153884
1631440562700, -0.533907, 2.3199813, 8.796597, -0.03924809, -0.01198823, 0.045814894
1631440562702, -0.5434838, 2.2984335, 8.822932, -0.07040222, -0.03520111, 0.04886922
1631440562704, -0.5410896, 2.2744915, 8.8684225, -0.08628472, -0.044974953, 0.049480084
1631440562706, -0.521936, 2.2577322, 8.928277, -0.13271047, -0.07857254, 0.052534413
1631440562707, -0.50757074, 2.2529438, 8.968979, -0.14492778, -0.088346384, 0.054367006
1631440562714, -0.45968673, 2.2361844, 9.206005, -0.1956296, -0.12560916, 0.06047566
1631440562716, -0.4309563, 2.2481554, 9.332897, -0.2096795, -0.13355042, 0.059253927
1631440562718, -0.4213795, 2.2337902, 9.383176, -0.2133447, -0.13538301, 0.06169739
1631440562720, -0.39025488, 2.2026656, 9.486126, -0.22067507, -0.14026994, 0.06352998
1631440562724, -0.33039984, 2.1523874, 9.636961, -0.21884248, -0.14026994, 0.06536258
1631440562726, -0.29927522, 2.1499932, 9.730335, -0.21639901, -0.1372156, 0.061086524
1631440562730, -0.25378537, 2.1140802, 9.883564, -0.19868392, -0.12560916, 0.06047566
1631440562738, -0.17717093, 2.0614076, 10.108619, -0.14553864, -0.09445504, 0.05131268
1631440562740, -0.17477672, 2.054225, 10.12059, -0.12232576, -0.07918341, 0.05009095
1631440562742, -0.16519992, 2.0446482, 10.161291, -0.10094548, -0.066355236, 0.047647487
1631440562746, -0.1364695, 2.0446482, 10.149321, -0.066737026, -0.03397938, 0.040927973
1631440562750, -0.1388637, 2.0278888, 10.115802, -0.03191771, -0.019929478, 0.037873644
1631440562756, -0.17238252, 2.0398598, 9.981726, 0.026725354, 0.016722437, 0.026267206
1631440562762, -0.19632454, 2.078167, 9.873987, 0.05299256, 0.039935317, 0.022602014
1631440562764, -0.21547815, 2.0590134, 9.814132, 0.060322944, 0.04665483, 0.02076942
1631440562766, -0.22505496, 2.066196, 9.747094, 0.0664316, 0.05337435, 0.018325957
1631440562768, -0.22984336, 2.0829554, 9.718364, 0.06887506, 0.057650406, 0.016493361
1631440562772, -0.2801216, 2.0973208, 9.589077, 0.06765333, 0.06253733, 0.017104227
1631440562778, -0.31364042, 2.1212628, 9.522039, 0.056046885, 0.06498079, 0.018936822
1631440562780, -0.32800564, 2.1140802, 9.5052805, 0.050549097, 0.061926465, 0.015882496
1631440562782, -0.35194764, 2.1021092, 9.483732, 0.04138612, 0.055817813, 0.018325957
1631440562784, -0.35194764, 2.1260512, 9.476549, 0.0364992, 0.05337435, 0.016493361
1631440562788, -0.40222588, 2.1308396, 9.457396, 0.016340645, 0.04176791, 0.019547688
1631440562790, -0.40701428, 2.1308396, 9.462184, 0.012064588, 0.036270123, 0.019547688
1631440562792, -0.4309563, 2.135628, 9.481338, -0.0013744468, 0.025885414, 0.018325957
1631440562794, -0.4309563, 2.135628, 9.481338, -0.009315695, 0.014278975, 0.021991149
1631440562800, -0.4309563, 2.123657, 9.517251, -0.03436117, -0.01198823, 0.02321288
1631440562802, -0.4261679, 2.1188686, 9.536405, -0.039858956, -0.017486017, 0.022602014
1631440562810, -0.4165911, 2.099715, 9.634567, -0.059406646, -0.052916203, 0.019547688
1631440562811, -0.4309563, 2.1045034, 9.684845, -0.061850104, -0.059024855, 0.018325957
1631440562814, -0.4309563, 2.1045034, 9.684845, -0.063682705, -0.0669661, 0.016493361
1631440562816, -0.4285621, 2.1068976, 9.706393, -0.06490443, -0.070631295, 0.015882496
1631440562818, -0.39743748, 2.1092918, 9.742306, -0.066737026, -0.07185303, 0.013439035
1631440562820, -0.39025488, 2.1092918, 9.759066, -0.06307184, -0.07429648, 0.01160644
1631440562822, -0.39264908, 2.0925324, 9.794978, -0.056352317, -0.07918341, 0.012217305
1631440562824, -0.39504328, 2.0973208, 9.804555, -0.056963183, -0.07735081, 0.007941248
1631440562828, -0.37110126, 2.0805612, 9.840468, -0.044745877, -0.07735081, 0.0067195175
1631440562830, -0.36631286, 2.0733786, 9.850045, -0.04046982, -0.07612908, 0.0067195175
1631440562832, -0.37349546, 2.0757728, 9.857227, -0.03191771, -0.07246389, 0.005497787
1631440562836, -0.36391866, 2.0757728, 9.845257, -0.013591751, -0.06330091, 0.0036651916
1631440562842, -0.33039984, 2.087744, 9.830892, 0.0065668016, -0.05535966, 0.0018325958
1631440562844, -0.35194764, 2.099715, 9.80695, 0.015118915, -0.05047274, -6.1086525E-4
1631440562848, -0.35194764, 2.1140802, 9.756671, 0.029168816, -0.04375322, -6.1086525E-4
1631440562850, -0.34237084, 2.1164744, 9.71597, 0.03283401, -0.037033707, -0.0018325958
1631440562852, -0.34476504, 2.1068976, 9.651326, 0.03772093, -0.034590244, -0.0018325958
1631440562854, -0.34476504, 2.1068976, 9.651326, 0.04444045, -0.029092457, -6.1086525E-4
1631440562858, -0.34715924, 2.1452048, 9.557953, 0.04505131, -0.02115121, -0.0018325958
1631440562862, -0.34237084, 2.1260512, 9.488521, 0.045662176, -0.009544769, 0.0018325958
1631440562864, -0.33997664, 2.1308396, 9.462184, 0.045662176, -0.0064904434, 0.0012217305
1631440562866, -0.34476504, 2.1571758, 9.397541, 0.04016439, -0.0022143866, 0.0030543262
1631440562868, -0.34476504, 2.1691468, 9.375993, 0.0346666, 8.399397E-4, 0.004886922
1631440562870, -0.33758244, 2.1787236, 9.356839, 0.031612277, 0.0045051314, 0.004886922
1631440562872, -0.31603462, 2.183512, 9.320927, 0.026725354, 0.0032834008, 0.0067195175
1631440562874, -0.31603462, 2.183512, 9.320927, 0.020616703, 0.0045051314, 0.007330383
1631440562878, -0.320823, 2.1811178, 9.31135, 0.010231993, 0.003894266, 0.01038471
1631440562882, -0.3184288, 2.1787236, 9.304167, -1.5271631E-4, -9.92656E-4, 0.01282817
1631440562888, -0.32561144, 2.1739352, 9.316138, -0.0154243475, -0.008323039, 0.01282817
1631440562890, -0.30406362, 2.1571758, 9.332897, -0.022143865, -0.0107665, 0.01160644
1631440562892, -0.29688102, 2.1547816, 9.337686, -0.025809057, -0.012599096, 0.012217305
1631440562900, -0.2777274, 2.1547816, 9.373599, -0.03924809, -0.021762075, 0.009773844
1631440562902, -0.29209262, 2.1308396, 9.395146, -0.04230242, -0.024205536, 0.008552114
1631440562910, -0.2633622, 2.1332338, 9.469367, -0.046578474, -0.022983804, 0.004886922
1631440562914, -0.2633622, 2.1021092, 9.517251, -0.05024367, -0.02115121, 0.0030543262
1631440562916, -0.2777274, 2.0973208, 9.536405, -0.046578474, -0.014431692, 0.0018325958
1631440562918, -0.272939, 2.0925324, 9.543588, -0.045356743, -0.013209961, 0.005497787
1631440562920, -0.2825158, 2.0757728, 9.565135, -0.044745877, -0.0046578473, 0.0018325958
1631440562921, -0.2896984, 2.078167, 9.581895, -0.044135015, -0.0028252518, 0.0
1631440562924, -0.29448682, 2.0829554, 9.603442, -0.039858956, 0.0020616702, 0.0018325958
1631440562926, -0.29927522, 2.0805612, 9.622596, -0.038026363, 0.006948592, 0.0036651916
1631440562932, -0.320823, 2.0949266, 9.665691, -0.029474247, 0.016111571, 0.004276057
1631440562934, -0.320823, 2.0949266, 9.665691, -0.025809057, 0.019776762, 0.004886922
1631440562938, -0.320823, 2.0853498, 9.668086, -0.02031127, 0.025885414, 0.004276057
1631440562940, -0.33518824, 2.0973208, 9.665691, -0.016646078, 0.02649628, 0.0061086523
1631440562942, -0.32800564, 2.0973208, 9.660903, -0.014202617, 0.029550606, 0.0067195175
1631440562944, -0.32800564, 2.099715, 9.658509, -0.012980887, 0.027718011, 0.0067195175
1631440562946, -0.32561144, 2.0973208, 9.665691, -0.011759156, 0.0313832, 0.0061086523
1631440562948, -0.33039984, 2.0925324, 9.660903, -0.010537425, 0.029550606, 0.009162978
1631440562950, -0.34237084, 2.0901382, 9.658509, -0.011148291, 0.0313832, 0.009773844
1631440562952, -0.34715924, 2.087744, 9.639356, -0.011148291, 0.0313832, 0.010995574
1631440562954, -0.34715924, 2.087744, 9.639356, -0.011148291, 0.030161472, 0.01038471
1631440562956, -0.32561144, 2.1092918, 9.639356, -0.012980887, 0.02649628, 0.01160644
1631440562964, -0.36152446, 2.087744, 9.610625, -0.019089539, 0.017944166, 0.010995574
1631440562966, -0.36631286, 2.0757728, 9.598654, -0.021533, 0.014278975, 0.010995574
1631440562970, -0.34715924, 2.0733786, 9.591472, -0.029474247, 0.009392053, 0.009773844
1631440562976, -0.36631286, 2.0590134, 9.608231, -0.037415497, 0.001450805, 0.007941248
1631440562978, -0.35913026, 2.0494366, 9.617807, -0.03924809, -3.8179077E-4, 0.0061086523
1631440562980, -0.35194764, 2.042254, 9.651326, -0.041080687, -0.0022143866, 0.0061086523
1631440562984, -0.33279404, 2.0518308, 9.692028, -0.04596761, -0.008933905, 0.004886922
1631440562986, -0.34237084, 2.0470424, 9.708787, -0.046578474, -0.010155635, 0.0018325958
1631440562994, -0.34237084, 2.0494366, 9.780613, -0.04230242, -0.01198823, 0.0
1631440562996, -0.34715924, 2.0470424, 9.823709, -0.04046982, -0.010155635, 0.0036651916
1631440562997, -0.34476504, 2.0590134, 9.842862, -0.038026363, -0.010155635, 0.0012217305
1631440563000, -0.34237084, 2.0590134, 9.878776, -0.03680463, -0.010155635, -0.002443461
1631440563002, -0.33997664, 2.0494366, 9.8955345, -0.031306844, -0.008933905, 6.1086525E-4
1631440563006, -0.33997664, 2.0087352, 9.931448, -0.020922136, -0.0064904434, 0.0
1631440563008, -0.33997664, 2.0087352, 9.93863, -0.019089539, -0.008323039, 6.1086525E-4
1631440563010, -0.34476504, 2.030283, 9.9434185, -0.00992656, -0.0071013086, -0.002443461
1631440563012, -0.36631286, 2.0494366, 9.95539, -0.008093964, -0.0077121737, -0.0018325958
1631440563014, -0.36631286, 2.0494366, 9.95539, 4.5814895E-4, -0.0071013086, -0.0030543262
1631440563022, -0.34476504, 2.0254946, 9.885958, 0.021227567, -0.0071013086, -0.0061086523
1631440563024, -0.34237084, 2.0231004, 9.8715925, 0.022449298, -0.0052687125, -0.0030543262
1631440563026, -0.34955344, 2.042254, 9.833285, 0.026725354, -0.0071013086, -0.0061086523
1631440563028, -0.33758244, 2.0494366, 9.814132, 0.02733622, -0.0077121737, -0.007330383
1631440563030, -0.33518824, 2.0518308, 9.792584, 0.030390546, -0.0064904434, -0.007941248
1631440563032, -0.31124622, 2.0494366, 9.7447, 0.031612277, -0.0077121737, -0.01038471
1631440563036, -0.320823, 2.0638018, 9.711182, 0.03283401, -0.009544769, -0.007941248
1631440563038, -0.320823, 2.0685902, 9.694422, 0.030390546, -0.0107665, -0.01038471
1631440563040, -0.34476504, 2.066196, 9.675268, 0.031001411, -0.015042556, -0.01160644
1631440563044, -0.34237084, 2.0685902, 9.627384, 0.02367103, -0.016875152, -0.013439035
1631440563046, -0.34715924, 2.066196, 9.598654, 0.021227567, -0.020540344, -0.016493361
1631440563050, -0.33279404, 2.0925324, 9.581895, 0.020616703, -0.02359467, -0.015271631
1631440563056, -0.37110126, 2.0901382, 9.534011, 0.011453724, -0.03214678, -0.016493361
1631440563058, -0.36870706, 2.0829554, 9.534011, 0.010842858, -0.03153592, -0.017715093
1631440563064, -0.41180268, 2.0925324, 9.526828, 0.0010690142, -0.039477166, -0.017715093
1631440563066, -0.39264908, 2.1260512, 9.512463, 4.5814895E-4, -0.037644573, -0.016493361
1631440563068, -0.38067806, 2.1284454, 9.514857, -0.001985312, -0.0388663, -0.017715093
1631440563072, -0.40701428, 2.171541, 9.526828, -0.010537425, -0.037644573, -0.014049901
1631440563074, -0.40701428, 2.171541, 9.526828, -0.009315695, -0.035811976, -0.01282817
1631440563078, -0.40701428, 2.1667526, 9.531616, -0.010537425, -0.030925052, -0.010995574
1631440563080, -0.39264908, 2.1547816, 9.531616, -0.011148291, -0.030314188, -0.009773844
1631440563084, -0.3878607, 2.171541, 9.538799, -0.014202617, -0.026648996, -0.0061086523
1631440563086, -0.3854665, 2.1619642, 9.543588, -0.012980887, -0.020540344, -0.0036651916
1631440563088, -0.37828386, 2.1571758, 9.536405, -0.012980887, -0.019929478, -0.0030543262
1631440563090, -0.36631286, 2.1571758, 9.526828, -0.012370021, -0.018707749, -6.1086525E-4
1631440563092, -0.35673606, 2.1428106, 9.541193, -0.010537425, -0.018096883, 0.0012217305
1631440563094, -0.35673606, 2.1428106, 9.541193, -0.00870483, -0.016875152, 0.002443461
1631440563095, -0.33758244, 2.147599, 9.5531645, -0.007483099, -0.016264288, 0.0036651916
1631440563098, -0.33039984, 2.147599, 9.555558, -0.0062613687, -0.014431692, 0.0036651916
1631440563106, -0.30885202, 2.1284454, 9.534011, 0.0035124752, -0.0064904434, 0.0030543262
1631440563108, -0.29688102, 2.1308396, 9.531616, 0.0053450707, -0.0052687125, 0.0018325958
1631440563110, -0.2896984, 2.1284454, 9.519646, 0.0053450707, -0.0052687125, 0.002443461
1631440563112, -0.2705448, 2.1452048, 9.478944, 0.0071776668, -0.0028252518, 0.0
1631440563116, -0.2825158, 2.1260512, 9.466972, 0.010231993, -0.0016035213, 0.0018325958
1631440563118, -0.28491, 2.1212628, 9.455002, 0.0071776668, 8.399397E-4, -0.0012217305
1631440563122, -0.29448682, 2.123657, 9.447819, 0.0047342055, 0.0020616702, -0.0018325958
1631440563124, -0.2896984, 2.1260512, 9.435848, 0.0053450707, 8.399397E-4, -0.0012217305
1631440563128, -0.29688102, 2.1212628, 9.416695, 0.0010690142, 0.006337727, -6.1086525E-4
1631440563130, -0.29688102, 2.123657, 9.419088, -0.0025961774, 0.010613783, 6.1086525E-4
1631440563132, -0.31603462, 2.135628, 9.421483, -0.0032070426, 0.009392053, 0.0012217305
1631440563134, -0.31603462, 2.135628, 9.421483, -0.0050396384, 0.01366811, 0.0
1631440563136, -0.30885202, 2.1260512, 9.411906, -0.009315695, 0.01366811, 0.0012217305
1631440563140, -0.32321724, 2.1284454, 9.397541, -0.014202617, 0.017944166, 0.002443461
1631440563142, -0.29927522, 2.1140802, 9.416695, -0.014813482, 0.020387627, 0.0036651916
1631440563144, -0.30645782, 2.1140802, 9.428665, -0.01786781, 0.020998493, 0.0030543262
1631440563146, -0.29448682, 2.1188686, 9.435848, -0.02031127, 0.02405282, 0.0018325958
1631440563150, -0.30166942, 2.1164744, 9.466972, -0.023365596, 0.02405282, 0.004276057
1631440563154, -0.2753332, 2.1045034, 9.507674, -0.027641652, 0.027718011, 0.007941248
1631440563156, -0.2801216, 2.0949266, 9.517251, -0.029474247, 0.027718011, 0.0067195175
1631440563158, -0.2777274, 2.0973208, 9.531616, -0.028863383, 0.02893974, 0.007330383
1631440563160, -0.2825158, 2.0973208, 9.569923, -0.030085113, 0.030772336, 0.0067195175
1631440563162, -0.28491, 2.0853498, 9.581895, -0.030085113, 0.031994067, 0.005497787
1631440563168, -0.2633622, 2.054225, 9.629779, -0.031306844, 0.036270123, 0.004886922
1631440563169, -0.260968, 2.0685902, 9.656115, -0.03313944, 0.036270123, 0.0061086523
1631440563172, -0.2705448, 2.078167, 9.711182, -0.031306844, 0.03688099, 0.004276057
1631440563174, -0.2825158, 2.078167, 9.711182, -0.03191771, 0.037491854, 0.005497787
1631440563176, -0.29448682, 2.0733786, 9.727941, -0.03191771, 0.03810272, 0.004276057
1631440563178, -0.29927522, 2.0566192, 9.735124, -0.031306844, 0.037491854, 0.004276057
1631440563180, -0.29209262, 2.0638018, 9.761459, -0.032528576, 0.03932445, 0.0036651916
1631440563182, -0.28491, 2.0638018, 9.792584, -0.030695979, 0.03688099, 0.0036651916
1631440563184, -0.29448682, 2.066196, 9.802161, -0.027030786, 0.03443753, 0.0030543262
1631440563186, -0.30406362, 2.0709844, 9.840468, -0.024587326, 0.03443753, 0.004886922
1631440563188, -0.2896984, 2.0566192, 9.866804, -0.023365596, 0.0313832, 0.0036651916
1631440563192, -0.25857377, 2.0446482, 9.8955345, -0.014813482, 0.021609358, 0.0012217305
1631440563194, -0.2801216, 2.0470424, 9.900323, -0.007483099, 0.022220224, 0.0018325958
1631440563196, -0.2896984, 2.0374656, 9.907506, -0.0050396384, 0.014278975, -0.0030543262
1631440563200, -0.2681506, 2.0350714, 9.876381, 0.0010690142, 0.011835515, -0.002443461
1631440563202, -0.2657564, 2.0374656, 9.869199, 0.005955936, 0.0081703225, -0.0061086523
1631440563204, -0.24899697, 2.0326772, 9.862016, 0.010231993, 0.0026725354, -0.0067195175
1631440563208, -0.260968, 2.0207062, 9.81892, 0.013897184, 0.0032834008, -0.009162978
1631440563210, -0.2657564, 2.0207062, 9.797373, 0.01572978, -0.003436117, -0.01160644
1631440563220, -0.2753332, 2.0254946, 9.69921, 0.01450805, -0.0016035213, -0.014049901
1631440563222, -0.2753332, 2.0231004, 9.67048, 0.011453724, -0.0046578473, -0.014660766
1631440563224, -0.2825158, 2.0254946, 9.646538, 0.011453724, -0.0052687125, -0.015882496
1631440563226, -0.30166942, 2.0254946, 9.632173, 0.007788532, -0.0052687125, -0.015882496
1631440563228, -0.30645782, 2.0326772, 9.627384, 0.008399397, -0.003436117, -0.017715093
1631440563230, -0.31364042, 2.0446482, 9.627384, 0.0053450707, -0.0052687125, -0.014660766
1631440563232, -0.31603462, 2.0470424, 9.603442, 0.0016798794, -0.004046982, -0.013439035
1631440563234, -0.32561144, 2.0494366, 9.610625, -0.0013744468, -0.0052687125, -0.01282817
1631440563236, -0.32561144, 2.054225, 9.617807, -0.0025961774, -0.0071013086, -0.014049901
1631440563238, -0.32321724, 2.0638018, 9.617807, -0.0032070426, -0.0046578473, -0.015271631
1631440563242, -0.33518824, 2.078167, 9.617807, -0.00870483, -0.0028252518, -0.010995574
1631440563245, -0.33518824, 2.0614076, 9.634567, -0.014202617, 0.001450805, -0.010995574
1631440563248, -0.33518824, 2.0638018, 9.639356, -0.0154243475, -3.8179077E-4, -0.01038471
1631440563250, -0.35673606, 2.0685902, 9.67048, -0.017256944, 0.001450805, -0.010995574
1631440563260, -0.35194764, 2.0805612, 9.732729, -0.017256944, -0.0016035213, -0.009773844
1631440563262, -0.35913026, 2.0829554, 9.749489, -0.013591751, -0.0022143866, -0.007330383
1631440563264, -0.35913026, 2.0757728, 9.751883, -0.014813482, -0.004046982, -0.009773844
1631440563266, -0.36391866, 2.0829554, 9.778219, -0.00992656, -0.0046578473, -0.0061086523
1631440563268, -0.36152446, 2.0853498, 9.799767, -0.011148291, -0.0052687125, -0.004886922
1631440563270, -0.35194764, 2.0757728, 9.80695, -0.007483099, -0.0064904434, -0.0067195175
1631440563272, -0.35673606, 2.1045034, 9.811738, -0.0038179078, -0.0071013086, -0.0061086523
1631440563274, -0.36152446, 2.111686, 9.811738, 0.0010690142, -0.008323039, -0.005497787
1631440563276, -0.35194764, 2.1068976, 9.814132, 0.0022907446, -0.0064904434, -0.004886922
1631440563278, -0.33997664, 2.087744, 9.81892, 0.005955936, -0.0064904434, -0.005497787
1631440563280, -0.33279404, 2.0901382, 9.811738, 0.009010263, -0.0064904434, -0.005497787
1631440563282, -0.34476504, 2.0973208, 9.804555, 0.013897184, -0.009544769, -0.004276057
1631440563284, -0.3184288, 2.0853498, 9.816526, 0.019394971, -0.011377365, -0.005497787
1631440563286, -0.3184288, 2.0805612, 9.804555, 0.02367103, -0.013209961, -0.007941248
1631440563290, -0.31603462, 2.0805612, 9.749489, 0.031001411, -0.017486017, -0.009162978
1631440563292, -0.32800564, 2.0805612, 9.708787, 0.031612277, -0.019929478, -0.010995574
1631440563296, -0.320823, 2.0733786, 9.660903, 0.035277467, -0.021762075, -0.013439035
1631440563299, -0.34237084, 2.078167, 9.589077, 0.038331795, -0.02359467, -0.015882496
1631440563304, -0.33279404, 2.0901382, 9.5292225, 0.03894266, -0.025427265, -0.014049901
1631440563306, -0.33758244, 2.0733786, 9.517251, 0.039553523, -0.02115121, -0.015882496
1631440563312, -0.34476504, 2.1021092, 9.428665, 0.02855795, -0.013820826, -0.018325957
1631440563316, -0.35194764, 2.1092918, 9.380781, 0.01817324, -0.0052687125, -0.01160644
1631440563320, -0.35194764, 2.1404164, 9.356839, 0.010231993, -0.0022143866, -0.01038471
1631440563321, -0.36152446, 2.1428106, 9.38557, 0.0035124752, 0.0032834008, -0.009162978
1631440563326, -0.38067806, 2.1571758, 9.399935, -0.0062613687, 0.014278975, -0.0030543262
1631440563328, -0.39025488, 2.15957, 9.416695, -0.007483099, 0.01366811, -0.0030543262
1631440563332, -0.40701428, 2.1404164, 9.493309, -0.011148291, 0.01488984, 0.0
1631440563334, -0.40701428, 2.1404164, 9.493309, -0.014202617, 0.015500706, 0.002443461
1631440563340, -0.40940848, 2.1212628, 9.526828, -0.016035212, 0.018555032, 0.007941248
1631440563341, -0.39504328, 2.1380222, 9.545981, -0.016035212, 0.0173333, 0.0067195175
1631440563346, -0.39983168, 2.1260512, 9.562741, -0.016035212, 0.0173333, 0.01038471
1631440563350, -0.37110126, 2.1284454, 9.5795, -0.014813482, 0.015500706, 0.01038471
1631440563352, -0.35434186, 2.087744, 9.593865, -0.014202617, 0.01488984, 0.01160644
1631440563354, -0.35434186, 2.087744, 9.593865, -0.014202617, 0.012446379, 0.010995574
1631440563356, -0.35194764, 2.0949266, 9.59626, -0.012370021, 0.012446379, 0.012217305
1631440563358, -0.34715924, 2.087744, 9.598654, -0.013591751, 0.011224649, 0.013439035
1631440563362, -0.32561144, 2.099715, 9.59626, -0.011759156, 0.0081703225, 0.014049901
1631440563364, -0.32321724, 2.0901382, 9.591472, -0.010537425, 0.0075594573, 0.014049901
1631440563366, -0.320823, 2.0973208, 9.601048, -0.00992656, 0.0081703225, 0.012217305
1631440563368, -0.32561144, 2.0949266, 9.598654, -0.006872234, 0.008781188, 0.013439035
1631440563370, -0.31603462, 2.0829554, 9.586683, -0.010537425, 0.0051159966, 0.01282817
1631440563378, -0.29927522, 2.0757728, 9.5531645, -0.011148291, 0.008781188, 0.012217305
1631440563380, -0.32321724, 2.0709844, 9.543588, -0.010537425, 0.006337727, 0.01038471
1631440563384, -0.3184288, 2.0494366, 9.538799, -0.016646078, 0.009392053, 0.009773844
1631440563390, -0.33997664, 2.0494366, 9.538799, -0.020922136, 0.012446379, 0.009773844
1631440563392, -0.32800564, 2.0638018, 9.543588, -0.021533, 0.01366811, 0.010995574
1631440563394, -0.33518824, 2.0709844, 9.560347, -0.023365596, 0.013057245, 0.012217305
1631440563396, -0.34476504, 2.0590134, 9.572318, -0.025809057, 0.013057245, 0.01282817
1631440563398, -0.35434186, 2.0614076, 9.5795, -0.028252518, 0.017944166, 0.012217305
1631440563400, -0.35913026, 2.0566192, 9.574712, -0.031306844, 0.017944166, 0.015271631
1631440563402, -0.35194764, 2.0398598, 9.584289, -0.03313944, 0.019776762, 0.014660766
1631440563410, -0.36391866, 2.0254946, 9.680057, -0.041080687, 0.022220224, 0.016493361
1631440563414, -0.34955344, 2.0350714, 9.711182, -0.04046982, 0.022831088, 0.018936822
1631440563418, -0.35434186, 2.006341, 9.756671, -0.036193766, 0.021609358, 0.018325957
1631440563420, -0.33518824, 2.0015526, 9.771036, -0.03436117, 0.016722437, 0.02076942
1631440563422, -0.320823, 2.006341, 9.797373, -0.03191771, 0.016722437, 0.021380283
1631440563424, -0.33039984, 2.0135236, 9.804555, -0.029474247, 0.01366811, 0.018936822
1631440563426, -0.3184288, 2.0159178, 9.80695, -0.026419923, 0.009392053, 0.018936822
1631440563428, -0.30645782, 2.0015526, 9.814132, -0.024587326, 0.0081703225, 0.018936822
1631440563430, -0.31124622, 1.9991584, 9.814132, -0.022143865, 0.006337727, 0.017715093
1631440563432, -0.30166942, 1.99437, 9.80695, -0.017256944, -9.92656E-4, 0.016493361
1631440563434, -0.29209262, 1.9895816, 9.794978, -0.0154243475, -0.0022143866, 0.017715093
1631440563436, -0.2777274, 1.9967642, 9.771036, -0.012980887, -0.005879578, 0.014049901
1631440563438, -0.28491, 1.9871874, 9.759066, -0.012370021, -0.012599096, 0.013439035
1631440563442, -0.2705448, 1.9752164, 9.756671, -0.011148291, -0.019318614, 0.01038471
1631440563444, -0.2777274, 2.0039468, 9.723152, -0.009315695, -0.027870728, 0.010995574
1631440563446, -0.25378537, 2.0135236, 9.69921, -0.010537425, -0.030925052, 0.007330383
1631440563448, -0.25139117, 2.0111294, 9.68724, -0.0154243475, -0.03520111, 0.005497787
1631440563450, -0.24899697, 2.0039468, 9.658509, -0.014202617, -0.040698897, 0.0030543262
1631440563452, -0.260968, 1.99437, 9.653721, -0.016035212, -0.041309763, 6.1086525E-4
1631440563454, -0.260968, 1.99437, 9.653721, -0.01786781, -0.04314236, -0.0018325958
1631440563458, -0.24420857, 1.9560628, 9.651326, -0.020922136, -0.044974953, -0.004276057
1631440563459, -0.25378537, 1.9632454, 9.660903, -0.02031127, -0.04375322, -0.0067195175
1631440563462, -0.2681506, 1.982399, 9.651326, -0.018478673, -0.039477166, -0.0067195175
1631440563464, -0.272939, 1.9919758, 9.646538, -0.018478673, -0.039477166, -0.0061086523
1631440563470, -0.25139117, 1.9991584, 9.646538, -0.019089539, -0.027870728, -0.0067195175
1631440563476, -0.22505496, 2.0087352, 9.622596, -0.0154243475, -0.016875152, -0.005497787
1631440563478, -0.22505496, 2.0087352, 9.622596, -0.011759156, -0.01198823, -0.004886922
1631440563480, -0.22266077, 2.0015526, 9.617807, -0.00992656, -0.013820826, -0.002443461
1631440563482, -0.21308395, 1.9991584, 9.610625, -0.011759156, -0.008323039, -0.002443461
1631440563484, -0.20829555, 1.9991584, 9.584289, -0.011759156, -0.0077121737, -0.004276057
1631440563490, -0.19632454, 1.99437, 9.555558, -0.016035212, -0.0077121737, -0.004886922
1631440563494, -0.19153613, 1.99437, 9.555558, -0.016035212, -0.011377365, -0.009162978
1631440563496, -0.21787235, 1.9847932, 9.555558, -0.017256944, -0.0107665, -0.01038471
1631440563498, -0.22505496, 1.9776106, 9.560347, -0.019089539, -0.008933905, -0.01038471
1631440563500, -0.22984336, 2.006341, 9.56753, -0.019089539, -0.013209961, -0.01160644
1631440563504, -0.23223756, 1.9967642, 9.526828, -0.021533, -0.015653422, -0.012217305
1631440563507, -0.21308395, 1.9895816, 9.517251, -0.023365596, -0.019318614, -0.012217305
1631440563510, -0.20829555, 1.9991584, 9.5292225, -0.025809057, -0.020540344, -0.01282817
1631440563511, -0.23223756, 2.0039468, 9.526828, -0.027641652, -0.020540344, -0.013439035
1631440563514, -0.24420857, 2.0087352, 9.524434, -0.027030786, -0.019318614, -0.014660766
1631440563516, -0.23463176, 1.9871874, 9.531616, -0.029474247, -0.015042556, -0.012217305
1631440563520, -0.22744916, 2.0087352, 9.531616, -0.030085113, -0.013209961, -0.01160644
1631440563524, -0.22984336, 1.9847932, 9.524434, -0.03436117, -0.008323039, -0.010995574
1631440563526, -0.23942018, 1.958457, 9.55077, -0.03436117, -0.0052687125, -0.01038471
1631440563528, -0.23702596, 1.9680338, 9.560347, -0.034972034, -0.0046578473, -0.01160644
1631440563530, -0.24420857, 1.9752164, 9.581895, -0.034972034, 0.001450805, -0.012217305
1631440563534, -0.25139117, 1.9680338, 9.610625, -0.030695979, 0.012446379, -0.013439035
1631440563538, -0.272939, 1.9440918, 9.62499, -0.03191771, 0.020387627, -0.014049901
1631440563542, -0.28491, 1.9536686, 9.658509, -0.028252518, 0.029550606, -0.013439035
1631440563548, -0.2825158, 1.9800048, 9.713575, -0.018478673, 0.045433104, -0.010995574
1631440563552, -0.2777274, 1.9512744, 9.737517, -0.00992656, 0.057650406, -0.010995574
1631440563554, -0.2801216, 1.9393034, 9.742306, -0.00992656, 0.057039544, -0.01282817
1631440563558, -0.29448682, 1.9393034, 9.754277, -0.0050396384, 0.06253733, -0.015271631
1631440563560, -0.30406362, 1.9440918, 9.759066, -0.006872234, 0.06498079, -0.015882496
1631440563564, -0.33518824, 1.9656396, 9.783008, 4.5814895E-4, 0.06375906, -0.017715093
1631440563568, -0.34476504, 1.9512744, 9.816526, 0.0022907446, 0.057650406, -0.021991149
1631440563570, -0.35434186, 1.9536686, 9.821315, 0.0035124752, 0.055817813, -0.022602014
1631440563572, -0.39025488, 1.9536686, 9.833285, 0.005955936, 0.050320026, -0.02443461
1631440563574, -0.39025488, 1.9536686, 9.833285, 0.0096211275, 0.04604397, -0.023823744
1631440563578, -0.39983168, 1.9656396, 9.838074, 0.012675454, 0.036270123, -0.027488936
1631440563580, -0.39264908, 1.9632454, 9.830892, 0.011453724, 0.032604933, -0.02687807
1631440563588, -0.4237737, 1.982399, 9.81892, 0.018784106, 0.010613783, -0.03359759
1631440563590, -0.4429273, 2.0015526, 9.799767, 0.021227567, 0.0045051314, -0.034208454
1631440563592, -0.4405331, 1.9847932, 9.771036, 0.023060163, -3.8179077E-4, -0.03481932
1631440563594, -0.4333505, 1.9847932, 9.766248, 0.02367103, -0.0052687125, -0.035430185
1631440563596, -0.45250413, 1.9895816, 9.739912, 0.022449298, -0.0071013086, -0.034208454
1631440563598, -0.45489833, 1.9895816, 9.727941, 0.024281893, -0.008933905, -0.034208454
1631440563600, -0.45250413, 1.99437, 9.720758, 0.024281893, -0.013209961, -0.034208454
1631440563602, -0.45010993, 2.0111294, 9.69921, 0.025503624, -0.018707749, -0.03604105
1631440563604, -0.46447513, 2.0087352, 9.689633, 0.024281893, -0.019318614, -0.03726278
1631440563606, -0.49081135, 2.0111294, 9.646538, 0.025503624, -0.018096883, -0.03481932
1631440563608, -0.49320555, 2.0135236, 9.627384, 0.02367103, -0.019929478, -0.032986723
1631440563610, -0.49799395, 2.0278888, 9.627384, 0.02367103, -0.019318614, -0.032986723
1631440563612, -0.49799395, 2.0278888, 9.603442, 0.024281893, -0.018707749, -0.032986723
1631440563615, -0.51475334, 2.042254, 9.5795, 0.024892759, -0.015653422, -0.028099801
1631440563620, -0.51954174, 2.0494366, 9.5531645, 0.022449298, -0.014431692, -0.026267206
1631440563624, -0.50757074, 2.066196, 9.555558, 0.02367103, -0.010155635, -0.02321288
1631440563626, -0.50757074, 2.0805612, 9.543588, 0.022449298, -0.0064904434, -0.02321288
1631440563628, -0.50996494, 2.0901382, 9.531616, 0.023060163, -0.0052687125, -0.019547688
1631440563630, -0.50517654, 2.1021092, 9.495703, 0.021227567, -0.0028252518, -0.020158553
1631440563634, -0.47884035, 2.1140802, 9.469367, 0.019394971, 0.0026725354, -0.018325957
1631440563636, -0.47165772, 2.1092918, 9.464579, 0.020005837, 0.006337727, -0.016493361
1631440563640, -0.46447513, 2.1068976, 9.452607, 0.01817324, 0.013057245, -0.01282817
1631440563642, -0.47165772, 2.0925324, 9.438242, 0.016340645, 0.012446379, -0.010995574
1631440563648, -0.4405331, 2.1140802, 9.4143, 0.011453724, 0.016111571, -0.004886922
1631440563650, -0.4285621, 2.123657, 9.402329, 0.011453724, 0.018555032, -0.0030543262
1631440563654, -0.40701428, 2.1212628, 9.419088, 0.009010263, 0.022220224, 0.0012217305
1631440563658, -0.39743748, 2.1308396, 9.419088, 0.00290161, 0.02405282, 0.002443461
1631440563666, -0.35434186, 2.1404164, 9.407118, -0.0056505036, 0.027718011, 0.009162978
1631440563668, -0.34955344, 2.1452048, 9.402329, -0.008093964, 0.023441954, 0.007941248
1631440563670, -0.33758244, 2.135628, 9.387964, -0.008093964, 0.025885414, 0.01038471
1631440563672, -0.34955344, 2.1188686, 9.373599, -0.012980887, 0.02649628, 0.010995574
1631440563676, -0.34955344, 2.0973208, 9.397541, -0.01786781, 0.025274549, 0.015271631
1631440563678, -0.34955344, 2.0949266, 9.404723, -0.02397646, 0.027718011, 0.016493361
1631440563680, -0.34237084, 2.0853498, 9.411906, -0.02397646, 0.029550606, 0.015882496
1631440563682, -0.33997664, 2.0805612, 9.421483, -0.028863383, 0.030161472, 0.014049901
1631440563684, -0.320823, 2.0733786, 9.445425, -0.029474247, 0.028328875, 0.014660766
1631440563686, -0.30406362, 2.0638018, 9.474155, -0.0355829, 0.032604933, 0.015271631
1631440563688, -0.30406362, 2.0614076, 9.483732, -0.0355829, 0.035659257, 0.015271631
1631440563690, -0.31603462, 2.0566192, 9.517251, -0.03680463, 0.036270123, 0.015882496
1631440563692, -0.30166942, 2.0566192, 9.56753, -0.03863723, 0.038713586, 0.015882496
1631440563694, -0.30166942, 2.0566192, 9.56753, -0.03924809, 0.03932445, 0.018325957
1631440563698, -0.31364042, 2.0614076, 9.613019, -0.036193766, 0.043600507, 0.019547688
1631440563700, -0.30885202, 2.0518308, 9.672874, -0.032528576, 0.044211373, 0.02076942
1631440563702, -0.31124622, 2.0518308, 9.69921, -0.033750303, 0.04604397, 0.018936822
1631440563704, -0.30645782, 2.0614076, 9.725547, -0.030695979, 0.04665483, 0.020158553
1631440563706, -0.3184288, 2.0494366, 9.739912, -0.026419923, 0.050320026, 0.019547688
1631440563708, -0.30885202, 2.0494366, 9.742306, -0.022143865, 0.04848743, 0.020158553
1631440563710, -0.30645782, 2.0470424, 9.763854, -0.016646078, 0.051541757, 0.02076942
1631440563712, -0.32561144, 2.0350714, 9.787796, -0.014202617, 0.05093089, 0.019547688
1631440563718, -0.32561144, 2.018312, 9.797373, -0.0032070426, 0.052763484, 0.018936822
1631440563722, -0.33518824, 2.0326772, 9.799767, 0.00290161, 0.051541757, 0.022602014
1631440563724, -0.33279404, 2.0231004, 9.799767, 0.0041233404, 0.052763484, 0.02321288
1631440563726, -0.34237084, 2.0087352, 9.794978, 0.0065668016, 0.04848743, 0.02076942
1631440563732, -0.31364042, 2.0135236, 9.766248, 0.008399397, 0.04970916, 0.020158553
1631440563734, -0.31364042, 2.0135236, 9.766248, 0.0096211275, 0.047265697, 0.02076942
1631440563736, -0.30885202, 2.0207062, 9.768642, 0.0065668016, 0.047265697, 0.021380283
1631440563738, -0.31364042, 2.0087352, 9.771036, 0.0071776668, 0.045433104, 0.022602014
1631440563740, -0.31603462, 2.0015526, 9.771036, 0.0041233404, 0.04298964, 0.021991149
1631440563744, -0.31364042, 1.9632454, 9.759066, 0.00290161, 0.043600507, 0.02076942
1631440563756, -0.30885202, 1.9967642, 9.802161, -0.0062613687, 0.023441954, 0.013439035
1631440563760, -0.30166942, 1.9919758, 9.821315, -0.008093964, 0.014278975, 0.010995574
1631440563762, -0.30885202, 1.9895816, 9.830892, -0.0056505036, 0.009392053, 0.008552114
1631440563764, -0.29688102, 1.982399, 9.840468, -0.0050396384, 0.0075594573, 0.0061086523
1631440563766, -0.30885202, 2.0015526, 9.840468, -0.0032070426, 0.001450805, 0.004886922
1631440563768, -0.3184288, 2.0111294, 9.83568, -0.0013744468, -0.0022143866, 0.002443461
1631440563770, -0.31364042, 1.9919758, 9.850045, -0.0025961774, -0.003436117, 0.0018325958
1631440563772, -0.30166942, 1.9871874, 9.859622, 4.5814895E-4, -0.0052687125, 0.0012217305
1631440563776, -0.30406362, 2.0039468, 9.842862, 0.007788532, -0.012599096, 0.0018325958
1631440563780, -0.3184288, 1.9871874, 9.840468, 0.007788532, -0.012599096, -0.002443461
1631440563782, -0.32321724, 2.0015526, 9.830892, 0.007788532, -0.012599096, -0.0030543262
1631440563786, -0.32800564, 1.9847932, 9.809343, 0.01450805, -0.011377365, -0.0030543262
1631440563791, -0.32321724, 1.9919758, 9.754277, 0.017562376, -0.0077121737, -0.002443461
1631440563796, -0.32321724, 1.9967642, 9.723152, 0.020616703, -0.0052687125, -0.0036651916
1631440563798, -0.32561144, 1.9919758, 9.71597, 0.021227567, -0.003436117, -0.004276057
1631440563802, -0.30885202, 2.006341, 9.696816, 0.02367103, -3.8179077E-4, -0.0036651916
1631440563806, -0.29448682, 1.9871874, 9.680057, 0.025503624, 0.0020616702, -0.005497787
1631440563808, -0.30166942, 1.9919758, 9.668086, 0.02733622, 0.0026725354, -0.004886922
1631440563812, -0.320823, 1.9991584, 9.634567, 0.029168816, 0.0020616702, -0.007330383
1631440563816, -0.32561144, 1.9967642, 9.605837, 0.02855795, 0.0020616702, -0.0061086523
1631440563818, -0.33997664, 1.9895816, 9.591472, 0.030390546, 0.0045051314, -0.007330383
1631440563820, -0.34715924, 1.9895816, 9.565135, 0.026725354, 0.0020616702, -0.007941248
1631440563822, -0.34715924, 1.9871874, 9.560347, 0.026725354, 2.2907447E-4, -0.009162978
1631440563824, -0.36631286, 1.9991584, 9.560347, 0.024892759, 0.003894266, -0.009162978
1631440563826, -0.37588966, 2.0015526, 9.565135, 0.023060163, 0.0045051314, -0.009773844
1631440563828, -0.37828386, 1.99437, 9.557953, 0.02367103, 0.0045051314, -0.01160644
1631440563830, -0.38067806, 2.0015526, 9.543588, 0.020616703, 0.0075594573, -0.009162978
1631440563834, -0.3854665, 2.0159178, 9.543588, 0.016340645, 0.010002919, -0.007941248
1631440563840, -0.38307226, 2.0039468, 9.581895, 0.010842858, 0.014278975, -0.007941248
1631440563846, -0.39504328, 1.9991584, 9.593865, 0.009010263, 0.015500706, -0.0067195175
1631440563850, -0.37349546, 1.9991584, 9.615414, 0.009010263, 0.01488984, -0.007330383
1631440563852, -0.4189853, 2.0087352, 9.634567, 0.008399397, 0.01488984, -0.007330383
1631440563854, -0.4189853, 2.0087352, 9.634567, 0.010231993, 0.012446379, -0.0061086523
1631440563856, -0.39264908, 1.9991584, 9.653721, 0.0096211275, 0.010002919, -0.0061086523
1631440563858, -0.38067806, 2.0039468, 9.656115, 0.011453724, 0.008781188, -0.005497787
1631440563860, -0.39983168, 2.0039468, 9.665691, 0.010842858, 0.009392053, -0.005497787
1631440563862, -0.39025488, 2.0015526, 9.663298, 0.012064588, 0.008781188, -0.0067195175
1631440563864, -0.38067806, 2.0015526, 9.656115, 0.015118915, 0.0045051314, -0.007330383
1631440563866, -0.3878607, 1.9895816, 9.653721, 0.018784106, 0.0020616702, -0.008552114
1631440563868, -0.3854665, 1.9895816, 9.646538, 0.018784106, -0.0028252518, -0.0067195175
1631440563870, -0.36391866, 1.99437, 9.646538, 0.021838432, -0.0052687125, -0.008552114
1631440563872, -0.36391866, 2.0087352, 9.615414, 0.022449298, -0.0071013086, -0.010995574
1631440563874, -0.36391866, 2.006341, 9.610625, 0.024892759, -0.01198823, -0.008552114
1631440563878, -0.33758244, 1.9967642, 9.581895, 0.02611449, -0.013209961, -0.013439035
1631440563880, -0.33279404, 1.9991584, 9.581895, 0.02733622, -0.013820826, -0.009162978
1631440563882, -0.320823, 2.0111294, 9.557953, 0.02611449, -0.015042556, -0.012217305
1631440563886, -0.30406362, 2.0278888, 9.507674, 0.02611449, -0.015042556, -0.014660766
1631440563894, -0.31124622, 2.0254946, 9.4143, 0.019394971, -0.0107665, -0.01282817
1631440563896, -0.32321724, 2.0231004, 9.392753, 0.017562376, -0.008933905, -0.014049901
1631440563898, -0.320823, 2.0374656, 9.390358, 0.015118915, -0.0052687125, -0.014660766
1631440563900, -0.320823, 2.0446482, 9.380781, 0.011453724, -0.004046982, -0.013439035
1631440563904, -0.30645782, 2.0566192, 9.366416, 0.0035124752, 0.0026725354, -0.01282817
1631440563906, -0.32321724, 2.0398598, 9.356839, 4.5814895E-4, 0.0045051314, -0.010995574
1631440563908, -0.32561144, 2.030283, 9.349657, -0.001985312, 0.0081703225, -0.01160644
1631440563912, -0.33279404, 2.0470424, 9.368811, -0.0056505036, 0.016111571, -0.009773844
1631440563914, -0.34237084, 2.042254, 9.380781, -0.00992656, 0.018555032, -0.009162978
1631440563916, -0.33518824, 2.0470424, 9.402329, -0.011759156, 0.02405282, -0.009162978
1631440563918, -0.33279404, 2.0470424, 9.433454, -0.0154243475, 0.02405282, -0.007330383
1631440563920, -0.34715924, 2.0446482, 9.44303, -0.018478673, 0.027718011, -0.004886922
1631440563924, -0.35673606, 2.0518308, 9.488521, -0.01786781, 0.031994067, -0.0030543262
1631440563926, -0.34476504, 2.0518308, 9.514857, -0.020922136, 0.037491854, -0.002443461
1631440563928, -0.33997664, 2.0494366, 9.517251, -0.019700404, 0.03688099, -0.0018325958
1631440563930, -0.33997664, 2.054225, 9.526828, -0.019089539, 0.037491854, -6.1086525E-4
1631440563932, -0.32800564, 2.0374656, 9.591472, -0.019089539, 0.04298964, -0.002443461
1631440563934, -0.32800564, 2.0374656, 9.591472, -0.017256944, 0.043600507, -0.0012217305
1631440563936, -0.32800564, 2.0159178, 9.629779, -0.0154243475, 0.04604397, 0.0
1631440563938, -0.33758244, 2.0135236, 9.641749, -0.0154243475, 0.04665483, -6.1086525E-4
1631440563944, -0.33039984, 2.0159178, 9.694422, -0.011148291, 0.04848743, -0.0030543262
1631440563946, -0.33279404, 2.0135236, 9.71597, -0.010537425, 0.049098294, -0.0018325958
1631440563950, -0.33518824, 2.006341, 9.737517, -0.004428773, 0.045433104, -0.002443461
1631440563954, -0.34237084, 1.9776106, 9.766248, -0.0050396384, 0.043600507, -0.004276057
1631440563956, -0.34955344, 1.9752164, 9.775825, -7.6358154E-4, 0.037491854, -0.0030543262
1631440563960, -0.34476504, 1.9728222, 9.780613, -7.6358154E-4, 0.030772336, -0.005497787
1631440563962, -0.34476504, 1.9800048, 9.79019, 0.0022907446, 0.027107146, -0.005497787
1631440563964, -0.33997664, 1.9728222, 9.79019, 0.0047342055, 0.02405282, -0.005497787
1631440563966, -0.33039984, 1.9608512, 9.794978, 0.0053450707, 0.01488984, -0.007330383
1631440563968, -0.32800564, 1.9560628, 9.79019, 0.0071776668, 0.011224649, -0.007330383
1631440563970, -0.33758244, 1.9560628, 9.792584, 0.008399397, 0.009392053, -0.009162978
1631440563972, -0.36391866, 1.9752164, 9.761459, 0.010231993, 0.006337727, -0.007941248
1631440563974, -0.36391866, 1.9752164, 9.761459, 0.012064588, 0.0020616702, -0.009162978
1631440563976, -0.33039984, 1.9847932, 9.713575, 0.0071776668, -0.0046578473, -0.007330383
1631440563978, -0.3184288, 1.9919758, 9.684845, 0.008399397, -0.008323039, -0.008552114
1631440563980, -0.30166942, 1.99437, 9.62499, 0.0022907446, -0.022983804, -0.01160644
1631440563981, -0.29448682, 1.9991584, 9.589077, -0.0013744468, -0.032757647, -0.01038471
1631440563984, -0.29927522, 2.0087352, 9.55077, -0.0050396384, -0.046196684, -0.015882496
1631440563986, -0.31124622, 2.0039468, 9.545981, -0.014202617, -0.05352707, -0.015882496
1631440563988, -0.32321724, 1.99437, 9.55077, -0.017256944, -0.054137934, -0.018936822
1631440563990, -0.33758244, 1.9656396, 9.572318, -0.020922136, -0.055970527, -0.021991149
1631440563992, -0.38067806, 1.9776106, 9.591472, -0.02397646, -0.057803124, -0.021991149
1631440563994, -0.38067806, 1.9776106, 9.591472, -0.027030786, -0.055970527, -0.02076942
1631440563996, -0.39743748, 1.9871874, 9.605837, -0.033750303, -0.052916203, -0.019547688
1631440564000, -0.39025488, 1.982399, 9.615414, -0.03680463, -0.04558582, -0.02076942
1631440564002, -0.37588966, 1.9871874, 9.648932, -0.036193766, -0.041309763, -0.014660766
1631440564004, -0.36152446, 1.99437, 9.663298, -0.0355829, -0.03520111, -0.015271631
1631440564008, -0.33279404, 2.0207062, 9.689633, -0.031306844, -0.025427265, -0.012217305
1631440564010, -0.32800564, 2.0254946, 9.696816, -0.028252518, -0.024205536, -0.01160644
1631440564012, -0.31364042, 2.0326772, 9.706393, -0.024587326, -0.019929478, -0.009773844
1631440564016, -0.31124622, 2.0254946, 9.706393, -0.019089539, -0.0107665, -0.007941248
1631440564018, -0.31124622, 2.0231004, 9.71597, -0.018478673, -0.008933905, -0.010995574
1631440564022, -0.30166942, 1.9991584, 9.723152, -0.011148291, -0.0022143866, -0.009773844
1631440564024, -0.31603462, 1.9991584, 9.7447, -0.008093964, 2.2907447E-4, -0.009162978
1631440564026, -0.320823, 1.9895816, 9.747094, -0.006872234, 0.0026725354, -0.008552114
1631440564028, -0.32321724, 1.9800048, 9.747094, -0.0032070426, 0.003894266, -0.010995574
1631440564030, -0.30406362, 2.0015526, 9.739912, -0.001985312, 0.006948592, -0.010995574
1631440564034, -0.30645782, 1.9919758, 9.708787, 0.005955936, 0.009392053, -0.012217305
1631440564038, -0.29927522, 1.9776106, 9.706393, 0.011453724, 0.0081703225, -0.017715093
1631440564040, -0.29927522, 1.9895816, 9.692028, 0.012675454, 0.008781188, -0.018936822
1631440564042, -0.30645782, 2.0111294, 9.677663, 0.015118915, 0.0081703225, -0.02076942
1631440564044, -0.30645782, 2.0254946, 9.668086, 0.016340645, 0.006337727, -0.019547688
1631440564046, -0.2896984, 2.0159178, 9.646538, 0.01695151, 0.0075594573, -0.020158553
1631440564048, -0.30166942, 2.0231004, 9.629779, 0.01572978, 0.001450805, -0.02443461
1631440564054, -0.30166942, 2.0278888, 9.601048, 0.01450805, -0.005879578, -0.025045475
1631440564056, -0.33518824, 2.0159178, 9.5795, 0.01450805, -0.0071013086, -0.026267206
1631440564058, -0.34237084, 2.0111294, 9.5795, 0.012064588, -0.0071013086, -0.02687807
1631440564060, -0.33997664, 1.99437, 9.557953, 0.009010263, -0.012599096, -0.029321533
1631440564064, -0.34715924, 2.0231004, 9.510069, 0.008399397, -0.015042556, -0.032375857
1631440564066, -0.35673606, 2.0231004, 9.514857, 0.005955936, -0.017486017, -0.031154128
1631440564070, -0.34715924, 2.030283, 9.500492, -7.6358154E-4, -0.019318614, -0.034208454
1631440564072, -0.35673606, 2.0254946, 9.486126, -0.0013744468, -0.015653422, -0.03359759
1631440564074, -0.35673606, 2.0254946, 9.486126, -0.004428773, -0.018707749, -0.03604105
1631440564076, -0.35194764, 2.0278888, 9.488521, -0.0062613687, -0.016875152, -0.037873644
1631440564078, -0.33518824, 2.0470424, 9.500492, -0.010537425, -0.012599096, -0.040927973
1631440564080, -0.33758244, 2.0566192, 9.510069, -0.010537425, -0.013209961, -0.03726278
1631440564090, -0.39504328, 2.0398598, 9.589077, -0.0154243475, 0.005726862, -0.03726278
1631440564094, -0.40940848, 2.0494366, 9.639356, -0.012370021, 0.012446379, -0.03481932
1631440564096, -0.40701428, 2.0638018, 9.660903, -0.009315695, 0.016111571, -0.03481932
1631440564098, -0.40940848, 2.0566192, 9.672874, -0.00992656, 0.016722437, -0.03481932
1631440564102, -0.4189853, 2.078167, 9.711182, -0.0025961774, 0.017944166, -0.032986723
1631440564104, -0.4141969, 2.066196, 9.723152, 0.00290161, 0.020998493, -0.03359759
1631440564108, -0.4165911, 2.0590134, 9.739912, 0.0096211275, 0.02405282, -0.029932396
1631440564110, -0.39264908, 2.078167, 9.754277, 0.01450805, 0.024663685, -0.029932396
1631440564114, -0.40222588, 2.0709844, 9.735124, 0.01817324, 0.022831088, -0.032375857
1631440564116, -0.39983168, 2.0685902, 9.735124, 0.020616703, 0.023441954, -0.032375857
1631440564122, -0.3854665, 2.0638018, 9.665691, 0.024892759, 0.0173333, -0.03176499
1631440564124, -0.3854665, 2.066196, 9.648932, 0.024281893, 0.014278975, -0.03176499
1631440564126, -0.38307226, 2.0925324, 9.629779, 0.024892759, 0.014278975, -0.03359759
1631440564130, -0.3878607, 2.0925324, 9.608231, 0.021838432, 0.0081703225, -0.032375857
1631440564132, -0.39264908, 2.0709844, 9.56753, 0.016340645, 0.003894266, -0.035430185
1631440564134, -0.39264908, 2.0709844, 9.56753, 0.015118915, 2.2907447E-4, -0.034208454
1631440564138, -0.37588966, 2.0733786, 9.557953, 0.010842858, -0.0028252518, -0.035430185
1631440564140, -0.39264908, 2.0685902, 9.548376, 0.0071776668, -0.008323039, -0.035430185
1631440564142, -0.39743748, 2.0805612, 9.55077, 0.0053450707, -0.008933905, -0.03604105
1631440564144, -0.3854665, 2.0614076, 9.555558, 0.0035124752, -0.009544769, -0.03848451
1631440564146, -0.37828386, 2.0638018, 9.557953, 0.0010690142, -0.01198823, -0.03604105
1631440564148, -0.38307226, 2.0614076, 9.555558, -7.6358154E-4, -0.014431692, -0.03604105
1631440564150, -0.39743748, 2.066196, 9.572318, -0.0038179078, -0.016875152, -0.036651913
1631440564152, -0.40222588, 2.0901382, 9.5795, -0.0038179078, -0.017486017, -0.037873644
1631440564154, -0.40222588, 2.0901382, 9.5795, -0.0062613687, -0.017486017, -0.03604105
1631440564158, -0.3878607, 2.099715, 9.569923, -0.0062613687, -0.019929478, -0.03604105
1631440564164, -0.40462008, 2.111686, 9.577106, -0.00992656, -0.018707749, -0.037873644
1631440564166, -0.39264908, 2.111686, 9.605837, -0.00992656, -0.016264288, -0.032375857
1631440564170, -0.39504328, 2.099715, 9.605837, -0.010537425, -0.013209961, -0.03176499
1631440564172, -0.40701428, 2.111686, 9.632173, -0.011759156, -0.0107665, -0.030543262
1631440564178, -0.39983168, 2.087744, 9.636961, -0.011759156, -0.0064904434, -0.027488936
1631440564180, -0.39264908, 2.0901382, 9.636961, -0.010537425, -0.0064904434, -0.026267206
1631440564184, -0.39983168, 2.0853498, 9.653721, -0.010537425, -0.008323039, -0.02321288
1631440564186, -0.40940848, 2.066196, 9.675268, -0.011759156, -0.008323039, -0.025045475
1631440564188, -0.40701428, 2.0685902, 9.677663, -0.00992656, -0.009544769, -0.02443461
1631440564192, -0.39983168, 2.066196, 9.656115, -0.011148291, -0.008933905, -0.023823744
1631440564194, -0.39983168, 2.066196, 9.656115, -0.00992656, -0.011377365, -0.022602014
1631440564196, -0.39264908, 2.0470424, 9.646538, -0.009315695, -0.013209961, -0.02321288
1631440564198, -0.39743748, 2.0518308, 9.656115, -0.007483099, -0.018096883, -0.022602014
1631440564202, -0.37828386, 2.0518308, 9.677663, -0.011759156, -0.020540344, -0.025045475
1631440564206, -0.37349546, 2.0326772, 9.692028, -0.00992656, -0.018096883, -0.026267206
1631440564208, -0.38307226, 2.0374656, 9.696816, -0.0062613687, -0.017486017, -0.02443461
1631440564212, -0.37588966, 2.0159178, 9.723152, -0.007483099, -0.017486017, -0.02687807
1631440564213, -0.37588966, 2.0159178, 9.723152, -0.0038179078, -0.017486017, -0.028099801
1631440564218, -0.35434186, 2.0374656, 9.727941, 0.0016798794, -0.015042556, -0.028710667
1631440564220, -0.33758244, 2.0278888, 9.735124, 0.0010690142, -0.016264288, -0.028099801
1631440564222, -0.33997664, 2.0326772, 9.737517, 0.0053450707, -0.012599096, -0.029321533
1631440564224, -0.35194764, 2.0398598, 9.735124, 0.010231993, -0.010155635, -0.031154128
1631440564232, -0.37110126, 2.0326772, 9.713575, 0.020005837, -0.004046982, -0.03176499
1631440564234, -0.37110126, 2.0326772, 9.713575, 0.024892759, -0.0016035213, -0.031154128
1631440564240, -0.39264908, 2.0350714, 9.711182, 0.02977968, 0.0045051314, -0.031154128
1631440564244, -0.39025488, 2.0350714, 9.68724, 0.031001411, 0.0045051314, -0.029932396
1631440564246, -0.39983168, 2.0685902, 9.648932, 0.033444874, 0.0051159966, -0.030543262
1631440564250, -0.39983168, 2.0566192, 9.627384, 0.035277467, 0.0045051314, -0.029321533
1631440564254, -0.40940848, 2.0518308, 9.591472, 0.035277467, -3.8179077E-4, -0.02565634
1631440564256, -0.39983168, 2.0685902, 9.593865, 0.03283401, -0.0016035213, -0.02565634
1631440564258, -0.39743748, 2.066196, 9.591472, 0.031612277, -3.8179077E-4, -0.02687807
1631440564260, -0.39504328, 2.0685902, 9.5795, 0.032223143, -0.0022143866, -0.027488936
1631440564262, -0.39025488, 2.0685902, 9.569923, 0.02855795, -0.0016035213, -0.02565634
1631440564264, -0.39504328, 2.0709844, 9.545981, 0.024281893, -0.0046578473, -0.025045475
1631440564266, -0.39264908, 2.0350714, 9.541193, 0.019394971, -0.0046578473, -0.02565634
1631440564270, -0.3854665, 2.0326772, 9.536405, 0.010842858, -0.0046578473, -0.02687807
1631440564272, -0.38067806, 2.0518308, 9.55077, 0.008399397, -0.0071013086, -0.025045475
1631440564274, -0.38067806, 2.0518308, 9.55077, 0.00290161, -0.0077121737, -0.02443461
1631440564276, -0.39264908, 2.0278888, 9.560347, -0.0013744468, -0.009544769, -0.02687807
1631440564278, -0.3878607, 2.0398598, 9.560347, -0.0038179078, -0.0107665, -0.025045475
1631440564280, -0.38307226, 2.054225, 9.581895, -0.007483099, -0.011377365, -0.026267206
1631440564286, -0.39504328, 2.054225, 9.665691, -0.00870483, -0.020540344, -0.02687807
1631440564288, -0.40222588, 2.0470424, 9.680057, -0.009315695, -0.022372939, -0.025045475
1631440564290, -0.40462008, 2.042254, 9.689633, -0.007483099, -0.026648996, -0.027488936
1631440564294, -0.37828386, 2.0398598, 9.71597, -0.004428773, -0.029703323, -0.028710667
1631440564298, -0.36631286, 2.0470424, 9.71597, 0.0016798794, -0.032757647, -0.028099801
1631440564300, -0.35913026, 2.0326772, 9.713575, 0.0053450707, -0.034590244, -0.028710667
1631440564302, -0.36152446, 2.0446482, 9.711182, 0.007788532, -0.03214678, -0.029321533
1631440564304, -0.35673606, 2.0566192, 9.718364, 0.008399397, -0.033368513, -0.028099801
1631440564306, -0.35194764, 2.042254, 9.711182, 0.010842858, -0.034590244, -0.029321533
1631440564308, -0.36391866, 2.0374656, 9.711182, 0.010842858, -0.03214678, -0.028099801
1631440564310, -0.36631286, 2.0398598, 9.696816, 0.012675454, -0.027259862, -0.03176499
1631440564314, -0.37828386, 2.0231004, 9.675268, 0.015118915, -0.022983804, -0.029932396
1631440564316, -0.38067806, 2.0398598, 9.677663, 0.017562376, -0.018707749, -0.03176499
1631440564318, -0.3878607, 2.0398598, 9.682451, 0.01695151, -0.018707749, -0.030543262
1631440564320, -0.38067806, 2.0494366, 9.675268, 0.020005837, -0.013820826, -0.030543262
1631440564322, -0.38307226, 2.0374656, 9.672874, 0.024281893, -0.008933905, -0.031154128
1631440564324, -0.39504328, 2.0398598, 9.675268, 0.023060163, -0.010155635, -0.028710667
1631440564326, -0.41180268, 2.0446482, 9.675268, 0.026725354, -0.005879578, -0.028710667
1631440564328, -0.41180268, 2.0446482, 9.682451, 0.027947085, -0.0016035213, -0.02687807
1631440564330, -0.40940848, 2.054225, 9.682451, 0.031612277, 2.2907447E-4, -0.028099801
1631440564332, -0.4381389, 2.0326772, 9.684845, 0.030390546, 0.0032834008, -0.028099801
1631440564334, -0.4309563, 2.0374656, 9.684845, 0.0346666, 0.006948592, -0.028099801
1631440564336, -0.44532153, 2.0231004, 9.682451, 0.0346666, 0.005726862, -0.028099801
1631440564338, -0.4429273, 2.0207062, 9.677663, 0.035888333, 0.0075594573, -0.027488936
1631440564339, -0.4429273, 2.0470424, 9.672874, 0.037110064, 0.0081703225, -0.02565634
1631440564346, -0.4261679, 2.0350714, 9.653721, 0.04016439, 0.010613783, -0.029932396
1631440564350, -0.4141969, 2.0446482, 9.644144, 0.03772093, 0.0075594573, -0.028710667
1631440564352, -0.40940848, 2.0326772, 9.656115, 0.03894266, 0.006948592, -0.029932396
1631440564354, -0.40940848, 2.0326772, 9.656115, 0.04016439, 0.0051159966, -0.034208454
1631440564356, -0.4141969, 2.0470424, 9.656115, 0.037110064, 0.005726862, -0.034208454
1631440564358, -0.40940848, 2.0590134, 9.648932, 0.04016439, 0.0045051314, -0.035430185
1631440564360, -0.4213795, 2.0398598, 9.639356, 0.038331795, -0.0016035213, -0.037873644
1631440564364, -0.4429273, 2.0518308, 9.617807, 0.0346666, -0.003436117, -0.039095376
1631440564366, -0.4381389, 2.054225, 9.605837, 0.032223143, -0.008323039, -0.04153884
1631440564368, -0.4333505, 2.0590134, 9.593865, 0.031612277, -0.014431692, -0.044593163
1631440564370, -0.4381389, 2.0685902, 9.586683, 0.031612277, -0.016875152, -0.044593163
1631440564372, -0.44532153, 2.0829554, 9.560347, 0.02733622, -0.019929478, -0.043982297
1631440564378, -0.47884035, 2.078167, 9.55077, 0.024892759, -0.027259862, -0.04886922
1631440564380, -0.47165772, 2.0757728, 9.572318, 0.024892759, -0.029092457, -0.047036625
1631440564382, -0.47165772, 2.078167, 9.581895, 0.02367103, -0.030314188, -0.04520403
1631440564388, -0.51235914, 2.0925324, 9.548376, 0.02367103, -0.03642284, -0.047036625
1631440564389, -0.5267244, 2.1164744, 9.534011, 0.024281893, -0.037033707, -0.04520403
1631440564392, -0.5363012, 2.1164744, 9.517251, 0.025503624, -0.037644573, -0.04337143
1631440564396, -0.533907, 2.123657, 9.495703, 0.026725354, -0.03642284, -0.045814894
1631440564398, -0.5410896, 2.1308396, 9.486126, 0.02611449, -0.03520111, -0.04337143
1631440564400, -0.5602432, 2.1332338, 9.471761, 0.025503624, -0.033368513, -0.0421497
1631440564402, -0.56982, 2.123657, 9.455002, 0.02733622, -0.03214678, -0.040317107
1631440564406, -0.5530606, 2.1428106, 9.421483, 0.02733622, -0.029092457, -0.039095376
1631440564408, -0.5554548, 2.1404164, 9.4143, 0.027947085, -0.027259862, -0.03726278
1631440564410, -0.5650316, 2.1308396, 9.407118, 0.02367103, -0.022983804, -0.037873644
1631440564412, -0.5530606, 2.1332338, 9.375993, 0.02611449, -0.017486017, -0.032986723
1631440564414, -0.5530606, 2.1332338, 9.375993, 0.02367103, -0.013209961, -0.029932396
1631440564416, -0.545878, 2.1452048, 9.373599, 0.02367103, -0.009544769, -0.02687807
1631440564418, -0.5506664, 2.1404164, 9.371204, 0.021227567, -0.0071013086, -0.027488936
1631440564420, -0.5626374, 2.1571758, 9.364022, 0.022449298, -0.0046578473, -0.023823744
1631440564424, -0.533907, 2.1811178, 9.371204, 0.019394971, 0.003894266, -0.02076942
1631440564425, -0.50996494, 2.1811178, 9.368811, 0.01817324, 0.0075594573, -0.019547688
1631440564430, -0.50996494, 2.1811178, 9.378387, 0.01572978, 0.011224649, -0.013439035
1631440564433, -0.47644615, 2.1763294, 9.383176, 0.011453724, 0.019165898, -0.010995574
1631440564436, -0.47165772, 2.171541, 9.383176, 0.012064588, 0.018555032, -0.01160644
1631440564438, -0.47165772, 2.1643584, 9.383176, 0.012675454, 0.019776762, -0.009162978
1631440564446, -0.4429273, 2.147599, 9.411906, 4.5814895E-4, 0.02405282, -0.007330383
1631440564448, -0.4357447, 2.1380222, 9.411906, 0.0016798794, 0.023441954, -0.007941248
1631440564452, -0.4141969, 2.1188686, 9.45979, -0.0038179078, 0.02405282, -0.0061086523
1631440564456, -0.39504328, 2.1260512, 9.490914, -0.008093964, 0.020998493, -0.004276057
1631440564460, -0.39264908, 2.1140802, 9.524434, -0.008093964, 0.021609358, -0.0061086523
1631440564462, -0.37588966, 2.111686, 9.524434, -0.009315695, 0.020998493, -0.0061086523
1631440564464, -0.37588966, 2.1140802, 9.531616, -0.010537425, 0.019165898, -0.004276057
1631440564466, -0.36870706, 2.1021092, 9.55077, -0.00992656, 0.017944166, -0.005497787
1631440564468, -0.36391866, 2.0973208, 9.565135, -0.011148291, 0.015500706, -0.004886922
1631440564470, -0.36391866, 2.0853498, 9.574712, -0.011148291, 0.017944166, -0.0061086523
1631440564474, -0.37110126, 2.099715, 9.615414, -0.00992656, 0.016722437, -0.0061086523
1631440564476, -0.36631286, 2.087744, 9.622596, -0.011759156, 0.01488984, -0.004276057
1631440564478, -0.37349546, 2.0925324, 9.629779, -0.011148291, 0.01488984, -0.0061086523
1631440564480, -0.35673606, 2.0566192, 9.634567, -0.009315695, 0.016111571, -0.005497787
1631440564482, -0.36152446, 2.0733786, 9.646538, -0.008093964, 0.014278975, -0.005497787
1631440564486, -0.34237084, 2.0638018, 9.658509, -0.0062613687, 0.014278975, -0.0030543262
1631440564488, -0.34955344, 2.0709844, 9.675268, -0.006872234, 0.012446379, -0.0036651916
1631440564490, -0.34476504, 2.0853498, 9.677663, -0.0056505036, 0.013057245, -0.002443461
1631440564494, -0.33039984, 2.066196, 9.696816, -0.0032070426, 0.011835515, -0.0018325958
1631440564500, -0.35434186, 2.0614076, 9.696816, -0.0013744468, 0.013057245, -0.0018325958
1631440564502, -0.35434186, 2.0590134, 9.694422, -7.6358154E-4, 0.012446379, -0.0036651916
1631440564506, -0.34237084, 2.0518308, 9.713575, -7.6358154E-4, 0.0081703225, -0.0030543262
1631440564508, -0.34955344, 2.0566192, 9.706393, 0.0016798794, 0.008781188, -0.0030543262
1631440564510, -0.33997664, 2.0685902, 9.689633, 0.0016798794, 0.008781188, -0.004276057
1631440564512, -0.33518824, 2.066196, 9.694422, 0.0016798794, 0.008781188, -0.004886922
1631440564514, -0.33518824, 2.066196, 9.694422, 0.0016798794, 0.010613783, -0.005497787
1631440564516, -0.33039984, 2.0901382, 9.694422, 0.0010690142, 0.009392053, -0.0067195175
1631440564520, -0.34237084, 2.0853498, 9.68724, 0.0035124752, 0.0045051314, -0.004276057
1631440564522, -0.33758244, 2.0733786, 9.677663, -0.001985312, 0.003894266, -0.0067195175
1631440564524, -0.32561144, 2.0685902, 9.675268, -0.0013744468, 0.0020616702, -0.007330383
1631440564528, -0.32561144, 2.066196, 9.677663, -0.004428773, -0.0022143866, -0.0067195175
1631440564530, -0.33279404, 2.0566192, 9.680057, -0.008093964, -0.0071013086, -0.007941248
1631440564532, -0.34715924, 2.0590134, 9.672874, -0.010537425, -0.010155635, -0.007941248
1631440564534, -0.33758244, 2.054225, 9.677663, -0.012980887, -0.01198823, -0.009162978
1631440564536, -0.34715924, 2.0805612, 9.684845, -0.013591751, -0.015653422, -0.008552114
1631440564538, -0.35434186, 2.0805612, 9.68724, -0.0154243475, -0.019929478, -0.009773844
1631440564540, -0.35673606, 2.0733786, 9.68724, -0.016646078, -0.019929478, -0.009162978
1631440564542, -0.36870706, 2.0829554, 9.68724, -0.019089539, -0.022983804, -0.01038471
1631440564544, -0.36870706, 2.0638018, 9.718364, -0.018478673, -0.02603813, -0.010995574
1631440564550, -0.36631286, 2.0733786, 9.742306, -0.020922136, -0.029703323, -0.01160644
1631440564552, -0.35194764, 2.0685902, 9.749489, -0.020922136, -0.032757647, -0.01160644
1631440564554, -0.35194764, 2.0685902, 9.749489, -0.020922136, -0.03153592, -0.010995574
1631440564562, -0.34715924, 2.0566192, 9.787796, -0.012370021, -0.032757647, -0.015271631
1631440564570, -0.36870706, 2.0757728, 9.826103, 4.5814895E-4, -0.03153592, -0.015271631
1631440564574, -0.36870706, 2.0326772, 9.80695, 0.009010263, -0.03153592, -0.016493361
1631440564576, -0.37110126, 2.0638018, 9.809343, 0.01572978, -0.03153592, -0.015882496
1631440564578, -0.37588966, 2.0757728, 9.802161, 0.016340645, -0.030314188, -0.015882496
1631440564580, -0.3878607, 2.0757728, 9.792584, 0.020005837, -0.030925052, -0.015882496
1631440564582, -0.3878607, 2.0685902, 9.780613, 0.025503624, -0.027870728, -0.017715093
1631440564586, -0.38067806, 2.0709844, 9.7447, 0.02855795, -0.025427265, -0.018325957
1631440564588, -0.37828386, 2.0805612, 9.735124, 0.02977968, -0.022983804, -0.017715093
1631440564590, -0.37828386, 2.0853498, 9.71597, 0.031612277, -0.020540344, -0.018325957
1631440564592, -0.38307226, 2.0805612, 9.684845, 0.031001411, -0.022372939, -0.017104227
1631440564594, -0.38307226, 2.0805612, 9.684845, 0.03283401, -0.015042556, -0.017104227
1631440564598, -0.3878607, 2.0901382, 9.651326, 0.033444874, -0.012599096, -0.014660766
1631440564600, -0.40462008, 2.0901382, 9.634567, 0.034055736, -0.012599096, -0.014660766
1631440564602, -0.4141969, 2.0901382, 9.613019, 0.030390546, -0.012599096, -0.014660766
1631440564608, -0.37828386, 2.1499932, 9.507674, 0.020005837, -0.019929478, -0.013439035
1631440564609, -0.37349546, 2.1452048, 9.474155, 0.01695151, -0.033368513, -0.014660766
1631440564614, -0.3854665, 2.1188686, 9.450213, 0.0022907446, -0.05719226, -0.017715093
1631440564616, -0.4213795, 2.1140802, 9.481338, -0.004428773, -0.05963572, -0.021991149
1631440564622, -0.47884035, 2.0757728, 9.483732, -0.014813482, -0.06207918, -0.023823744
1631440564624, -0.48362875, 2.0949266, 9.512463, -0.020922136, -0.060246583, -0.021991149
1631440564626, -0.50278234, 2.1140802, 9.531616, -0.02397646, -0.05719226, -0.021991149
1631440564628, -0.49320555, 2.1140802, 9.555558, -0.024587326, -0.056581393, -0.02076942
1631440564630, -0.49081135, 2.0949266, 9.593865, -0.022143865, -0.05169447, -0.019547688
1631440564632, -0.46208093, 2.1188686, 9.651326, -0.024587326, -0.04680755, -0.017715093
1631440564636, -0.46926352, 2.123657, 9.696816, -0.017256944, -0.037644573, -0.014660766
1631440564638, -0.46686932, 2.1284454, 9.713575, -0.0154243475, -0.03520111, -0.014049901
1631440564640, -0.45729253, 2.1308396, 9.737517, -0.010537425, -0.028481591, -0.01038471
1631440564642, -0.46447513, 2.123657, 9.751883, -0.0062613687, -0.024205536, -0.009162978
1631440564644, -0.45010993, 2.1332338, 9.761459, 4.5814895E-4, -0.022983804, -0.007330383
1631440564649, -0.47405192, 2.1140802, 9.81892, 0.021838432, -0.01198823, -0.0030543262
1631440564652, -0.45010993, 2.0973208, 9.845257, 0.02855795, -0.008323039, -0.0036651916
1631440564654, -0.4429273, 2.0901382, 9.833285, 0.038331795, -0.005879578, -0.0030543262
1631440564656, -0.45489833, 2.0901382, 9.799767, 0.04260785, -0.0052687125, -0.004886922
1631440564658, -0.46208093, 2.1045034, 9.792584, 0.051159963, -0.0028252518, -0.004886922
1631440564666, -0.4213795, 2.1212628, 9.658509, 0.07070765, -0.004046982, -0.004276057
1631440564668, -0.4261679, 2.1308396, 9.62499, 0.07376198, -0.0052687125, -0.0036651916
1631440564670, -0.4165911, 2.123657, 9.584289, 0.07620544, -0.0071013086, -0.0036651916
1631440564672, -0.40222588, 2.1380222, 9.5292225, 0.07498371, -0.0064904434, -0.004886922
1631440564674, -0.40222588, 2.1380222, 9.5292225, 0.07070765, -0.0077121737, -0.005497787
1631440564678, -0.39743748, 2.1619642, 9.455002, 0.065209866, -0.011377365, -0.002443461
1631440564680, -0.4141969, 2.1619642, 9.419088, 0.05971208, -0.013209961, -0.004276057
1631440564682, -0.39983168, 2.1547816, 9.38557, 0.05787948, -0.0107665, -0.0030543262
1631440564684, -0.40222588, 2.1619642, 9.368811, 0.048716504, -0.01198823, -0.002443461
1631440564688, -0.4429273, 2.1739352, 9.318532, 0.03772093, -0.015042556, 0.002443461
1631440564692, -0.4285621, 2.1643584, 9.308955, 0.01817324, -0.016875152, 0.0036651916
1631440564694, -0.4405331, 2.171541, 9.318532, 0.011453724, -0.020540344, 0.0030543262
1631440564696, -0.44532153, 2.1691468, 9.325715, 0.0071776668, -0.019318614, 0.004886922
1631440564698, -0.4381389, 2.1643584, 9.330503, 4.5814895E-4, -0.021762075, 0.0061086523
1631440564700, -0.4333505, 2.1499932, 9.335292, -0.004428773, -0.022372939, 0.007941248
1631440564704, -0.4333505, 2.147599, 9.344869, -0.01786781, -0.024205536, 0.01038471
1631440564706, -0.44771573, 2.1643584, 9.378387, -0.02275473, -0.022983804, 0.01282817
1631440564708, -0.44771573, 2.1571758, 9.390358, -0.025809057, -0.024205536, 0.012217305
1631440564710, -0.4261679, 2.1547816, 9.435848, -0.030085113, -0.022372939, 0.015882496
1631440564713, -0.4141969, 2.15957, 9.502886, -0.03191771, -0.018707749, 0.020158553
1631440564716, -0.40222588, 2.147599, 9.526828, -0.03191771, -0.016875152, 0.02321288
1631440564718, -0.39743748, 2.147599, 9.536405, -0.030085113, -0.016264288, 0.02321288
1631440564722, -0.38307226, 2.1188686, 9.598654, -0.029474247, -0.015042556, 0.02565634
1631440564724, -0.37588966, 2.1188686, 9.617807, -0.027030786, -0.012599096, 0.02565634
1631440564730, -0.36631286, 2.087744, 9.665691, -0.016646078, -0.004046982, 0.026267206
1631440564732, -0.36631286, 2.0973208, 9.68724, -0.011759156, -0.003436117, 0.026267206
1631440564734, -0.35673606, 2.0901382, 9.696816, -0.00870483, 8.399397E-4, 0.027488936
1631440564736, -0.35434186, 2.078167, 9.696816, -0.0025961774, 0.0020616702, 0.026267206
1631440564740, -0.36152446, 2.0829554, 9.701605, 0.0053450707, 0.003894266, 0.023823744
1631440564742, -0.36152446, 2.0638018, 9.706393, 0.010842858, 0.006948592, 0.02565634
1631440564748, -0.34715924, 2.054225, 9.677663, 0.017562376, 0.011835515, 0.02565634
1631440564752, -0.36152446, 2.0470424, 9.689633, 0.020616703, 0.01366811, 0.026267206
1631440564754, -0.36152446, 2.0470424, 9.689633, 0.020616703, 0.013057245, 0.021380283
1631440564756, -0.35913026, 2.042254, 9.680057, 0.021838432, 0.011835515, 0.02443461
1631440564757, -0.36391866, 2.0470424, 9.680057, 0.022449298, 0.013057245, 0.025045475
1631440564762, -0.37588966, 2.0518308, 9.656115, 0.02367103, 0.008781188, 0.023823744
1631440564768, -0.37110126, 2.0518308, 9.62499, 0.02367103, -9.92656E-4, 0.022602014
1631440564772, -0.39504328, 2.030283, 9.603442, 0.020616703, -0.0077121737, 0.02443461
1631440564780, -0.37110126, 2.0350714, 9.586683, 0.012675454, -0.018707749, 0.02443461
1631440564782, -0.36391866, 2.0350714, 9.565135, 0.008399397, -0.024205536, 0.02565634
1631440564784, -0.36152446, 2.0446482, 9.565135, 0.007788532, -0.02603813, 0.025045475
1631440564786, -0.34237084, 2.0446482, 9.555558, 0.0035124752, -0.03153592, 0.025045475
1631440564788, -0.33758244, 2.0494366, 9.560347, 0.0016798794, -0.030314188, 0.028099801
1631440564792, -0.3184288, 2.0254946, 9.545981, -0.0038179078, -0.03642284, 0.02443461
1631440564796, -0.32321724, 2.030283, 9.534011, -0.0056505036, -0.04008803, 0.027488936
1631440564798, -0.320823, 2.0278888, 9.526828, -0.008093964, -0.039477166, 0.02687807
1631440564800, -0.34237084, 2.030283, 9.541193, -0.009315695, -0.041309763, 0.02443461
1631440564802, -0.33518824, 2.0326772, 9.538799, -0.00870483, -0.041309763, 0.026267206
1631440564804, -0.33279404, 2.0326772, 9.5292225, -0.012980887, -0.04375322, 0.02443461
1631440564810, -0.33518824, 2.0087352, 9.548376, -0.012370021, -0.04314236, 0.022602014
1631440564812, -0.30166942, 1.9991584, 9.545981, -0.012370021, -0.041309763, 0.021991149
1631440564814, -0.29927522, 1.9991584, 9.545981, -0.00992656, -0.039477166, 0.02321288
1631440564816, -0.320823, 1.99437, 9.536405, -0.00992656, -0.03520111, 0.022602014
1631440564818, -0.32561144, 2.0087352, 9.534011, -0.00992656, -0.03397938, 0.02076942
1631440564820, -0.33039984, 2.030283, 9.545981, -0.008093964, -0.03397938, 0.022602014
1631440564826, -0.34955344, 2.0374656, 9.574712, -0.0050396384, -0.02115121, 0.022602014
1631440564828, -0.35434186, 2.0398598, 9.584289, -0.0013744468, -0.019929478, 0.02321288
1631440564830, -0.35194764, 2.0374656, 9.59626, -0.0025961774, -0.017486017, 0.021991149
1631440564832, -0.36391866, 2.0757728, 9.586683, -0.001985312, -0.01198823, 0.02443461
1631440564834, -0.36391866, 2.0757728, 9.586683, 0.0016798794, -0.011377365, 0.025045475
1631440564836, -0.36631286, 2.0733786, 9.581895, 4.5814895E-4, -0.0077121737, 0.027488936
1631440564840, -0.37349546, 2.078167, 9.584289, 0.0071776668, -0.0028252518, 0.03176499
1631440564841, -0.37828386, 2.087744, 9.589077, 0.005955936, -0.0046578473, 0.029932396
1631440564844, -0.3878607, 2.0973208, 9.603442, 0.008399397, -0.0022143866, 0.031154128
1631440564846, -0.39025488, 2.087744, 9.601048, 0.013897184, -0.0022143866, 0.029932396
1631440564848, -0.38067806, 2.0829554, 9.586683, 0.012675454, -0.0046578473, 0.03359759
1631440564850, -0.38067806, 2.087744, 9.574712, 0.015118915, -0.0052687125, 0.034208454
1631440564852, -0.39504328, 2.0901382, 9.56753, 0.01817324, -0.008323039, 0.03481932
1631440564854, -0.39025488, 2.0925324, 9.565135, 0.020005837, -0.008323039, 0.03359759
1631440564856, -0.39264908, 2.0853498, 9.534011, 0.021838432, -0.012599096, 0.032986723
1631440564860, -0.39743748, 2.078167, 9.5292225, 0.02367103, -0.017486017, 0.034208454
1631440564862, -0.37110126, 2.0733786, 9.510069, 0.022449298, -0.016875152, 0.03481932
1631440564868, -0.38067806, 2.0925324, 9.445425, 0.016340645, -0.019929478, 0.03359759
1631440564870, -0.37349546, 2.087744, 9.440637, 0.013286319, -0.019318614, 0.032986723
1631440564872, -0.38307226, 2.099715, 9.411906, 0.009010263, -0.019929478, 0.035430185
1631440564874, -0.38307226, 2.099715, 9.411906, 0.0035124752, -0.02115121, 0.035430185
1631440564880, -0.37588966, 2.1045034, 9.421483, -0.007483099, -0.021762075, 0.03726278
1631440564884, -0.39504328, 2.111686, 9.423877, -0.014813482, -0.019929478, 0.03970624
1631440564886, -0.40222588, 2.1212628, 9.426271, -0.01786781, -0.016875152, 0.04153884
1631440564890, -0.39983168, 2.1260512, 9.464579, -0.024587326, -0.018096883, 0.045814894
1631440564892, -0.4237737, 2.1404164, 9.483732, -0.026419923, -0.017486017, 0.04642576
1631440564898, -0.4405331, 2.1308396, 9.531616, -0.027030786, -0.021762075, 0.05131268
1631440564902, -0.4141969, 2.1332338, 9.557953, -0.026419923, -0.024205536, 0.05497787
1631440564904, -0.40222588, 2.1404164, 9.560347, -0.027030786, -0.02359467, 0.054367006
1631440564906, -0.40222588, 2.1308396, 9.572318, -0.023365596, -0.027259862, 0.057421334
1631440564910, -0.4165911, 2.1308396, 9.577106, -0.01786781, -0.024816401, 0.057421334
1631440564914, -0.40940848, 2.1212628, 9.577106, -0.017256944, -0.025427265, 0.059864793
1631440564916, -0.3854665, 2.123657, 9.5795, -0.016035212, -0.022372939, 0.062308256
1631440564918, -0.38307226, 2.1188686, 9.569923, -0.016646078, -0.02359467, 0.062308256
1631440564920, -0.37349546, 2.1021092, 9.565135, -0.0154243475, -0.022372939, 0.06414085
1631440564922, -0.35913026, 2.1068976, 9.56753, -0.012980887, -0.022372939, 0.06291912
1631440564924, -0.34237084, 2.123657, 9.562741, -0.013591751, -0.019318614, 0.064751714
1631440564926, -0.34715924, 2.1308396, 9.548376, -0.011759156, -0.017486017, 0.06536258
1631440564930, -0.35194764, 2.1068976, 9.545981, -0.011759156, -0.018096883, 0.06658431
1631440564932, -0.37349546, 2.123657, 9.548376, -0.008093964, -0.015042556, 0.06719518
1631440564938, -0.35673606, 2.1188686, 9.526828, -0.00870483, -0.013820826, 0.069027774
1631440564944, -0.37588966, 2.1188686, 9.522039, -0.007483099, -0.0077121737, 0.069027774
1631440564946, -0.38067806, 2.1212628, 9.522039, -0.011148291, -0.003436117, 0.070249505
1631440564948, -0.37588966, 2.123657, 9.514857, -0.013591751, -3.8179077E-4, 0.07086037
1631440564950, -0.37110126, 2.1308396, 9.524434, -0.013591751, -0.0016035213, 0.070249505
1631440564952, -0.37828386, 2.1188686, 9.541193, -0.013591751, 0.0020616702, 0.07269296
1631440564954, -0.37828386, 2.1188686, 9.541193, -0.01786781, 0.003894266, 0.07391469
1631440564958, -0.38307226, 2.1284454, 9.543588, -0.019089539, 0.006948592, 0.07574729
1631440564960, -0.39264908, 2.1380222, 9.56753, -0.018478673, 0.006337727, 0.077579886
1631440564962, -0.39025488, 2.1428106, 9.56753, -0.02275473, 0.005726862, 0.07819075
1631440564965, -0.37349546, 2.1308396, 9.581895, -0.018478673, 0.0045051314, 0.08246681
1631440564968, -0.36391866, 2.1332338, 9.584289, -0.02275473, 0.0032834008, 0.08307768
1631440564970, -0.35434186, 2.147599, 9.59626, -0.022143865, 8.399397E-4, 0.0842994
1631440564972, -0.37588966, 2.1284454, 9.615414, -0.02031127, -3.8179077E-4, 0.0842994
1631440564974, -0.37588966, 2.1284454, 9.615414, -0.019700404, -0.008933905, 0.086132
1631440564976, -0.36391866, 2.1332338, 9.610625, -0.02031127, -0.005879578, 0.087964594
1631440564978, -0.36391866, 2.1308396, 9.605837, -0.02275473, -0.008323039, 0.086132
1631440564980, -0.36152446, 2.1092918, 9.608231, -0.02275473, -0.010155635, 0.08735373
1631440564982, -0.36631286, 2.1092918, 9.59626, -0.02275473, -0.012599096, 0.08735373
1631440564984, -0.36631286, 2.1068976, 9.613019, -0.02275473, -0.013209961, 0.08735373
1631440564986, -0.36631286, 2.1021092, 9.613019, -0.024587326, -0.016264288, 0.08857546
1631440564990, -0.35434186, 2.1045034, 9.605837, -0.025809057, -0.015042556, 0.087964594
1631440564992, -0.36631286, 2.1021092, 9.608231, -0.025809057, -0.017486017, 0.08857546
1631440564994, -0.36631286, 2.1021092, 9.608231, -0.028252518, -0.016264288, 0.089186326
1631440564996, -0.35673606, 2.0925324, 9.615414, -0.03191771, -0.016264288, 0.089186326
1631440564998, -0.34715924, 2.0949266, 9.615414, -0.030695979, -0.016875152, 0.09040806
1631440565002, -0.320823, 2.0901382, 9.634567, -0.03191771, -0.014431692, 0.092240654
1631440565004, -0.3184288, 2.0638018, 9.641749, -0.032528576, -0.012599096, 0.09101892
1631440565006, -0.29927522, 2.0733786, 9.658509, -0.031306844, -0.01198823, 0.09162979
1631440565008, -0.30645782, 2.0733786, 9.665691, -0.030695979, -0.0107665, 0.09162979
1631440565010, -0.2801216, 2.0829554, 9.68724, -0.030085113, -0.0107665, 0.09040806
1631440565012, -0.2801216, 2.0901382, 9.684845, -0.029474247, -0.0107665, 0.09162979
1631440565014, -0.2801216, 2.1068976, 9.69921, -0.026419923, -0.008933905, 0.09101892
1631440565016, -0.2633622, 2.1068976, 9.711182, -0.025198191, -0.008323039, 0.092240654
1631440565018, -0.24181437, 2.0925324, 9.735124, -0.02397646, -0.009544769, 0.093462385
1631440565024, -0.22984336, 2.0518308, 9.751883, -0.013591751, -0.0071013086, 0.08857546
1631440565028, -0.22984336, 2.0494366, 9.749489, -0.0050396384, -0.004046982, 0.0842994
1631440565030, -0.20590134, 2.042254, 9.749489, -1.5271631E-4, -0.0052687125, 0.084910266
1631440565032, -0.19632454, 2.0518308, 9.732729, 0.0010690142, -0.0022143866, 0.08246681
1631440565034, -0.19632454, 2.0518308, 9.732729, 0.0053450707, -0.0016035213, 0.081855945
1631440565036, -0.20829555, 2.0733786, 9.725547, 0.0071776668, -0.0022143866, 0.08307768
1631440565038, -0.21547815, 2.066196, 9.711182, 0.008399397, -9.92656E-4, 0.08124508
1631440565044, -0.21787235, 2.0733786, 9.629779, 0.008399397, -0.0046578473, 0.07941248
1631440565046, -0.20590134, 2.0805612, 9.601048, 0.007788532, -0.005879578, 0.07941248
1631440565050, -0.22266077, 2.0805612, 9.557953, 0.0047342055, -0.008323039, 0.07880162
1631440565052, -0.22026655, 2.0925324, 9.522039, 0.0016798794, -0.008323039, 0.07880162
1631440565054, -0.22026655, 2.0925324, 9.522039, 4.5814895E-4, -0.011377365, 0.077579886
1631440565060, -0.23463176, 2.099715, 9.493309, -0.012980887, -0.013209961, 0.080634214
1631440565062, -0.23223756, 2.1092918, 9.488521, -0.019089539, -0.014431692, 0.08002335
1631440565064, -0.21308395, 2.0973208, 9.500492, -0.023365596, -0.015042556, 0.07819075
1631440565066, -0.19393034, 2.0949266, 9.522039, -0.029474247, -0.013820826, 0.08002335
1631440565070, -0.18195933, 2.087744, 9.536405, -0.03313944, -0.012599096, 0.08552113
1631440565074, -0.17956513, 2.1092918, 9.586683, -0.03924809, -0.01198823, 0.084910266
1631440565076, -0.15801731, 2.1021092, 9.608231, -0.041691553, -0.013820826, 0.08368854
1631440565078, -0.15562311, 2.099715, 9.613019, -0.04352415, -0.01198823, 0.08552113
1631440565080, -0.15562311, 2.0949266, 9.629779, -0.042913284, -0.013209961, 0.08552113
1631440565082, -0.15562311, 2.0901382, 9.639356, -0.041080687, -0.0107665, 0.084910266
1631440565085, -0.1340753, 2.0685902, 9.703999, -0.03863723, -0.013209961, 0.08307768
1631440565088, -0.1412579, 2.0685902, 9.706393, -0.036193766, -0.013209961, 0.08246681
1631440565090, -0.1436521, 2.0638018, 9.723152, -0.031306844, -0.011377365, 0.080634214
1631440565094, -0.12689269, 2.0638018, 9.7447, -0.025809057, -0.008323039, 0.080634214
1631440565096, -0.12928689, 2.054225, 9.749489, -0.024587326, -0.008933905, 0.080634214
1631440565098, -0.1436521, 2.0518308, 9.756671, -0.022143865, -0.005879578, 0.08002335
1631440565100, -0.14604631, 2.0446482, 9.747094, -0.017256944, -0.004046982, 0.081855945
1631440565104, -0.1316811, 2.0446482, 9.739912, -0.012370021, -0.004046982, 0.077579886
1631440565106, -0.12928689, 2.0326772, 9.732729, -0.00870483, -3.8179077E-4, 0.076358154
1631440565108, -0.12928689, 2.042254, 9.725547, -0.0062613687, -9.92656E-4, 0.07391469
1631440565114, -0.110133275, 2.0398598, 9.665691, 4.5814895E-4, 2.2907447E-4, 0.07391469
1631440565116, -0.12210429, 2.0446482, 9.665691, 0.0016798794, 0.0026725354, 0.069027774
1631440565120, -0.12689269, 2.0254946, 9.665691, 0.0010690142, 2.2907447E-4, 0.06658431
1631440565122, -0.1316811, 2.0207062, 9.644144, 0.0010690142, -0.0016035213, 0.065973446
1631440565124, -0.1412579, 2.0278888, 9.641749, 0.0022907446, 2.2907447E-4, 0.06536258
1631440565126, -0.14844051, 2.0254946, 9.646538, -1.5271631E-4, -0.0016035213, 0.06169739
1631440565128, -0.1436521, 2.0231004, 9.644144, -7.6358154E-4, -3.8179077E-4, 0.06169739
1631440565130, -0.15322891, 2.0350714, 9.641749, -0.0038179078, 0.001450805, 0.059253927
1631440565132, -0.18195933, 2.0398598, 9.62499, -0.0062613687, -0.003436117, 0.0580322
1631440565134, -0.18195933, 2.0398598, 9.62499, -0.009315695, -0.0028252518, 0.058643065
1631440565136, -0.19153613, 2.0638018, 9.613019, -0.010537425, -0.0046578473, 0.059253927
1631440565140, -0.22026655, 2.0518308, 9.644144, -0.016035212, -0.004046982, 0.055588737
1631440565142, -0.21068975, 2.0757728, 9.660903, -0.01786781, -0.0028252518, 0.058643065
1631440565144, -0.22505496, 2.0973208, 9.653721, -0.019089539, -0.0046578473, 0.059864793
1631440565146, -0.24660277, 2.0805612, 9.668086, -0.021533, -0.0071013086, 0.058643065
1631440565148, -0.24660277, 2.078167, 9.677663, -0.02397646, -0.0071013086, 0.059864793
1631440565150, -0.24420857, 2.0829554, 9.684845, -0.02397646, -0.0046578473, 0.0580322
1631440565154, -0.24181437, 2.0853498, 9.708787, -0.024587326, -0.010155635, 0.06169739
1631440565158, -0.2777274, 2.0949266, 9.742306, -0.026419923, -0.015042556, 0.06047566
1631440565164, -0.24420857, 2.099715, 9.775825, -0.0154243475, -0.021762075, 0.062308256
1631440565166, -0.24660277, 2.0949266, 9.773431, -0.016646078, -0.025427265, 0.064751714
1631440565170, -0.23463176, 2.111686, 9.768642, -0.009315695, -0.030925052, 0.06169739
1631440565172, -0.24420857, 2.078167, 9.783008, -0.008093964, -0.032757647, 0.061086524
1631440565174, -0.24420857, 2.078167, 9.783008, -0.0038179078, -0.033368513, 0.061086524
1631440565178, -0.21787235, 2.0925324, 9.763854, 0.0041233404, -0.034590244, 0.059864793
1631440565182, -0.22984336, 2.0853498, 9.7447, 0.0096211275, -0.03520111, 0.059864793
1631440565184, -0.22266077, 2.099715, 9.71597, 0.012675454, -0.03520111, 0.058643065
1631440565186, -0.20350714, 2.1140802, 9.69921, 0.01817324, -0.037033707, 0.06169739
1631440565188, -0.19393034, 2.111686, 9.682451, 0.018784106, -0.03642284, 0.061086524
1631440565190, -0.19871874, 2.1212628, 9.67048, 0.021227567, -0.038255434, 0.059253927
1631440565192, -0.16998832, 2.1140802, 9.603442, 0.023060163, -0.037644573, 0.05681047
1631440565196, -0.17717093, 2.123657, 9.574712, 0.02855795, -0.03397938, 0.058643065
1631440565198, -0.18195933, 2.123657, 9.5531645, 0.025503624, -0.032757647, 0.059253927
1631440565200, -0.18914193, 2.1188686, 9.524434, 0.025503624, -0.029703323, 0.059253927
1631440565202, -0.19393034, 2.1140802, 9.512463, 0.02611449, -0.030925052, 0.062308256
1631440565204, -0.19632454, 2.1140802, 9.483732, 0.023060163, -0.027259862, 0.06169739
1631440565205, -0.19871874, 2.1068976, 9.462184, 0.023060163, -0.02359467, 0.062308256
1631440565208, -0.19871874, 2.1092918, 9.450213, 0.020005837, -0.02359467, 0.06169739
1631440565210, -0.19632454, 2.1212628, 9.419088, 0.015118915, -0.019318614, 0.06352998
1631440565212, -0.19871874, 2.1164744, 9.383176, 0.012675454, -0.017486017, 0.062308256
1631440565214, -0.19871874, 2.1164744, 9.383176, 0.005955936, -0.016875152, 0.065973446
1631440565218, -0.16998832, 2.1308396, 9.378387, -0.0025961774, -0.01198823, 0.069027774
1631440565220, -0.17238252, 2.135628, 9.387964, -0.008093964, -0.010155635, 0.06841691
1631440565222, -0.17956513, 2.1404164, 9.407118, -0.013591751, -0.0077121737, 0.06963864
1631440565224, -0.17238252, 2.1499932, 9.411906, -0.01786781, -0.009544769, 0.070249505
1631440565226, -0.16280572, 2.1523874, 9.43106, -0.020922136, -0.0071013086, 0.073303826
1631440565228, -0.15562311, 2.135628, 9.44303, -0.025809057, -0.0052687125, 0.0720821
1631440565232, -0.14604631, 2.1380222, 9.502886, -0.030085113, -0.005879578, 0.07391469
1631440565236, -0.14604631, 2.147599, 9.519646, -0.03313944, -0.0064904434, 0.07269296
1631440565238, -0.15322891, 2.1404164, 9.517251, -0.03436117, -0.0077121737, 0.07513642
1631440565240, -0.1388637, 2.1164744, 9.534011, -0.03313944, -0.0077121737, 0.073303826
1631440565242, -0.1340753, 2.1092918, 9.55077, -0.033750303, -0.009544769, 0.07086037
1631440565244, -0.12210429, 2.1068976, 9.56753, -0.032528576, -0.009544769, 0.07452556
1631440565246, -0.12928689, 2.111686, 9.5795, -0.03191771, -0.008933905, 0.07269296
1631440565248, -0.1388637, 2.1021092, 9.591472, -0.031306844, -0.010155635, 0.070249505
1631440565250, -0.12928689, 2.0901382, 9.610625, -0.028252518, -0.009544769, 0.07086037
1631440565252, -0.107739076, 2.0733786, 9.644144, -0.028863383, -0.0107665, 0.0720821
1631440565254, -0.107739076, 2.0733786, 9.644144, -0.026419923, -0.008933905, 0.07086037
1631440565256, -0.10055647, 2.078167, 9.658509, -0.02397646, -0.0046578473, 0.06841691
1631440565258, -0.08619126, 2.0949266, 9.675268, -0.020922136, -0.0046578473, 0.06780604
1631440565262, -0.12449849, 2.0805612, 9.701605, -0.012980887, -3.8179077E-4, 0.06719518
1631440565264, -0.11971009, 2.066196, 9.706393, -0.013591751, 2.2907447E-4, 0.06536258
1631440565266, -0.12210429, 2.0805612, 9.701605, -0.008093964, 0.0051159966, 0.06536258
1631440565268, -0.12689269, 2.0853498, 9.694422, -0.0038179078, 0.003894266, 0.06719518
1631440565270, -0.12449849, 2.0901382, 9.701605, 4.5814895E-4, 0.0075594573, 0.06780604
1631440565272, -0.15322891, 2.0853498, 9.703999, 0.0035124752, 0.010002919, 0.06719518
1631440565274, -0.15322891, 2.0853498, 9.703999, 0.0071776668, 0.012446379, 0.06719518
1631440565278, -0.15083471, 2.1021092, 9.668086, 0.012064588, 0.015500706, 0.06841691
1631440565286, -0.15083471, 2.0925324, 9.603442, 0.01450805, 0.020387627, 0.06841691
1631440565288, -0.14604631, 2.0949266, 9.589077, 0.015118915, 0.021609358, 0.06719518
1631440565290, -0.16519992, 2.0829554, 9.577106, 0.013286319, 0.021609358, 0.070249505
1631440565292, -0.18674773, 2.0757728, 9.56753, 0.010842858, 0.02405282, 0.06841691
1631440565294, -0.18674773, 2.0757728, 9.56753, 0.0096211275, 0.022831088, 0.070249505
1631440565302, -0.18914193, 2.0614076, 9.56753, -0.006872234, 0.020998493, 0.069027774
1631440565306, -0.18674773, 2.042254, 9.584289, -0.013591751, 0.020998493, 0.069027774
1631440565312, -0.18914193, 2.0374656, 9.615414, -0.024587326, 0.014278975, 0.06841691
1631440565314, -0.18914193, 2.0374656, 9.615414, -0.031306844, 0.012446379, 0.06719518
1631440565316, -0.19153613, 2.0566192, 9.656115, -0.033750303, 0.010613783, 0.06841691
1631440565318, -0.18674773, 2.0518308, 9.677663, -0.036193766, 0.0075594573, 0.06780604
1631440565320, -0.18914193, 2.0446482, 9.718364, -0.038026363, 0.0045051314, 0.06719518
1631440565324, -0.18195933, 2.0207062, 9.773431, -0.038026363, -0.003436117, 0.06536258
1631440565332, -0.17477672, 2.0398598, 9.8955345, -0.0355829, -0.013820826, 0.062308256
1631440565334, -0.17477672, 2.0398598, 9.8955345, -0.031306844, -0.021762075, 0.062308256
1631440565336, -0.16759412, 2.0350714, 9.9099, -0.030085113, -0.021762075, 0.06169739
1631440565338, -0.16519992, 2.0231004, 9.929053, -0.027641652, -0.027259862, 0.06047566
1631440565342, -0.15562311, 2.0278888, 9.933842, -0.014813482, -0.033368513, 0.058643065
1631440565343, -0.15322891, 2.0278888, 9.92666, -0.016035212, -0.035811976, 0.0580322
1631440565346, -0.1316811, 2.0254946, 9.9099, -0.0062613687, -0.037644573, 0.056199603
1631440565350, -0.12449849, 2.0135236, 9.888352, 0.0010690142, -0.041309763, 0.054367006
1631440565352, -0.11971009, 2.0231004, 9.8715925, 0.0071776668, -0.042531494, 0.051923547
1631440565354, -0.11971009, 2.0231004, 9.8715925, 0.013286319, -0.04375322, 0.05009095
1631440565356, -0.11731588, 2.0087352, 9.83568, 0.01695151, -0.044974953, 0.04642576
1631440565358, -0.12928689, 2.0087352, 9.811738, 0.020005837, -0.04008803, 0.047036625
1631440565360, -0.11252748, 2.0135236, 9.783008, 0.023060163, -0.042531494, 0.04520403
1631440565362, -0.11492168, 2.0207062, 9.771036, 0.024281893, -0.04192063, 0.043982297
1631440565364, -0.11731588, 2.0111294, 9.7447, 0.02367103, -0.037644573, 0.0421497
1631440565370, -0.107739076, 2.0207062, 9.665691, 0.02733622, -0.027870728, 0.03726278
1631440565372, -0.10534488, 2.018312, 9.632173, 0.02733622, -0.028481591, 0.039095376
1631440565376, -0.110133275, 2.018312, 9.608231, 0.02733622, -0.021762075, 0.03604105
1631440565380, -0.110133275, 2.042254, 9.593865, 0.025503624, -0.012599096, 0.03481932
1631440565382, -0.12928689, 2.0494366, 9.59626, 0.025503624, -0.008323039, 0.035430185
1631440565384, -0.1364695, 2.0566192, 9.581895, 0.024281893, -0.0077121737, 0.032375857
1631440565386, -0.12928689, 2.066196, 9.5531645, 0.023060163, -0.003436117, 0.032986723
1631440565389, -0.1340753, 2.042254, 9.557953, 0.020616703, -3.8179077E-4, 0.03481932
1631440565392, -0.17956513, 2.0374656, 9.569923, 0.019394971, 0.005726862, 0.032375857
1631440565394, -0.17956513, 2.0374656, 9.569923, 0.017562376, 0.006337727, 0.031154128
1631440565396, -0.18195933, 2.0254946, 9.584289, 0.017562376, 0.0081703225, 0.03481932
1631440565398, -0.18914193, 2.0326772, 9.586683, 0.015118915, 0.010002919, 0.03481932
1631440565399, -0.19632454, 2.042254, 9.591472, 0.01450805, 0.010613783, 0.032375857
1631440565402, -0.19393034, 2.0470424, 9.586683, 0.013286319, 0.01366811, 0.032986723
1631440565404, -0.19871874, 2.0733786, 9.586683, 0.013286319, 0.010002919, 0.03604105
1631440565406, -0.19153613, 2.0757728, 9.593865, 0.01450805, 0.010613783, 0.034208454
1631440565408, -0.20111294, 2.0709844, 9.589077, 0.011453724, 0.009392053, 0.03604105
1631440565410, -0.20350714, 2.0638018, 9.59626, 0.013897184, 0.006948592, 0.03726278
1631440565414, -0.19632454, 2.0638018, 9.608231, 0.013897184, 0.0032834008, 0.03481932
1631440565418, -0.18674773, 2.0733786, 9.615414, 0.015118915, -3.8179077E-4, 0.034208454
1631440565420, -0.17717093, 2.0709844, 9.629779, 0.01695151, -0.003436117, 0.035430185
1631440565422, -0.17956513, 2.0638018, 9.622596, 0.020005837, -0.005879578, 0.03481932
1631440565424, -0.17717093, 2.0685902, 9.615414, 0.020616703, -0.0052687125, 0.034208454
1631440565426, -0.18195933, 2.087744, 9.598654, 0.021838432, -0.0077121737, 0.03604105
1631440565431, -0.15083471, 2.1021092, 9.560347, 0.023060163, -0.0107665, 0.03481932
1631440565434, -0.15083471, 2.1021092, 9.560347, 0.024892759, -0.01198823, 0.032986723
1631440565438, -0.15801731, 2.1092918, 9.543588, 0.024892759, -0.016875152, 0.03176499
1631440565442, -0.1388637, 2.0949266, 9.517251, 0.021838432, -0.017486017, 0.032375857
1631440565444, -0.12928689, 2.078167, 9.481338, 0.02367103, -0.016264288, 0.032375857
1631440565446, -0.1316811, 2.078167, 9.469367, 0.022449298, -0.015653422, 0.029321533
1631440565448, -0.1340753, 2.087744, 9.45979, 0.020616703, -0.017486017, 0.030543262
1631440565452, -0.12210429, 2.099715, 9.419088, 0.01817324, -0.01198823, 0.031154128
1631440565454, -0.12210429, 2.099715, 9.419088, 0.016340645, -0.010155635, 0.029321533
1631440565456, -0.11971009, 2.1021092, 9.419088, 0.015118915, -0.008933905, 0.03176499
1631440565457, -0.11252748, 2.0949266, 9.411906, 0.01450805, -0.0071013086, 0.030543262
1631440565460, -0.11252748, 2.1068976, 9.397541, 0.013286319, -0.0052687125, 0.029932396
1631440565466, -0.10295067, 2.1068976, 9.411906, 0.007788532, 0.0051159966, 0.029932396
1631440565468, -0.095768064, 2.1045034, 9.411906, 0.0071776668, 0.010002919, 0.029932396
1631440565470, -0.088585466, 2.1164744, 9.402329, 0.0071776668, 0.010613783, 0.031154128
1631440565474, -0.10055647, 2.1045034, 9.426271, 0.0016798794, 0.020387627, 0.032986723
1631440565476, -0.10534488, 2.087744, 9.419088, -0.001985312, 0.022220224, 0.032375857
1631440565482, -0.10534488, 2.1021092, 9.466972, -0.0032070426, 0.032604933, 0.032375857
1631440565484, -0.088585466, 2.1045034, 9.481338, -0.0013744468, 0.036270123, 0.032986723
1631440565486, -0.08379706, 2.0829554, 9.500492, -0.001985312, 0.039935317, 0.03176499
1631440565488, -0.074220255, 2.0709844, 9.512463, -0.0025961774, 0.03932445, 0.032986723
1631440565490, -0.074220255, 2.0709844, 9.543588, -0.0025961774, 0.041157044, 0.03176499
1631440565492, -0.074220255, 2.0829554, 9.5531645, 0.0016798794, 0.043600507, 0.032986723
1631440565496, -0.059855044, 2.0638018, 9.574712, 0.0041233404, 0.04665483, 0.029932396
1631440565498, -0.062249243, 2.0638018, 9.581895, 0.008399397, 0.044211373, 0.030543262
1631440565500, -0.04070143, 2.0685902, 9.591472, 0.011453724, 0.04482224, 0.028710667
1631440565504, -0.047884032, 2.0494366, 9.605837, 0.01450805, 0.049098294, 0.026267206
1631440565506, -0.033518825, 2.0350714, 9.636961, 0.01817324, 0.04970916, 0.02443461
1631440565508, -0.01436521, 2.0350714, 9.648932, 0.020616703, 0.052763484, 0.021380283
1631440565510, -0.009576807, 2.0446482, 9.658509, 0.021227567, 0.055817813, 0.018936822
1631440565512, -0.01436521, 2.0087352, 9.71597, 0.024281893, 0.06009387, 0.017104227
1631440565514, -0.01436521, 2.0087352, 9.71597, 0.02977968, 0.065591656, 0.015882496
1631440565520, -0.021547815, 2.0278888, 9.742306, 0.0346666, 0.071700305, 0.01160644
1631440565522, -0.031124622, 2.030283, 9.759066, 0.039553523, 0.075976364, 0.004886922
1631440565524, -0.009576807, 2.018312, 9.802161, 0.04810564, 0.080252424, 0.0036651916
1631440565528, -0.0023942017, 2.0087352, 9.8955345, 0.05665775, 0.08575021, -6.1086525E-4
1631440565530, -0.0023942017, 2.0135236, 9.9673605, 0.06582073, 0.09369145, -0.004886922
1631440565532, 0.019153614, 2.018312, 10.065523, 0.07009678, 0.096134916, -0.007330383
1631440565534, 0.019153614, 2.018312, 10.065523, 0.082924955, 0.09980011, -0.009162978
1631440565536, 0.007182605, 2.030283, 10.101437, 0.09514226, 0.103465304, -0.013439035
1631440565538, -0.0047884034, 2.0326772, 10.137349, 0.10247265, 0.104687035, -0.014660766
1631440565540, -0.031124622, 2.0518308, 10.178051, 0.12018774, 0.11018482, -0.018936822
1631440565542, -0.055066638, 2.042254, 10.2403, 0.1366811, 0.10835222, -0.02321288
1631440565544, -0.06703765, 2.0326772, 10.259454, 0.14462234, 0.110795684, -0.023823744
1631440565546, -0.093373865, 2.0207062, 10.271424, 0.16172658, 0.112017415, -0.025045475
1631440565548, -0.107739076, 2.0135236, 10.259454, 0.1788308, 0.10957395, -0.028710667
1631440565550, -0.12210429, 2.0087352, 10.247482, 0.18860464, 0.10957395, -0.028710667
1631440565554, -0.15562311, 2.0494366, 10.173263, 0.2191479, 0.104687035, -0.03176499
1631440565560, -0.16998832, 2.0326772, 10.022428, 0.23991732, 0.093080595, -0.03359759
1631440565562, -0.16519992, 2.0278888, 9.988909, 0.24724771, 0.09002627, -0.03481932
1631440565564, -0.17238252, 2.042254, 9.936236, 0.24785857, 0.08636107, -0.03726278
1631440565566, -0.16998832, 2.0805612, 9.888352, 0.2509129, 0.08636107, -0.037873644
1631440565572, -0.16998832, 2.1428106, 9.620202, 0.24297164, 0.07903069, -0.03970624
1631440565574, -0.16998832, 2.1428106, 9.620202, 0.23564127, 0.06681339, -0.04153884
1631440565576, -0.15083471, 2.1739352, 9.507674, 0.22464569, 0.06009387, -0.039095376
1631440565580, -0.12928689, 2.207454, 9.438242, 0.20326541, 0.044211373, -0.03970624
1631440565584, -0.16519992, 2.2050598, 9.476549, 0.18066339, 0.027107146, -0.03848451
1631440565588, -0.260968, 2.171541, 9.490914, 0.14889841, 0.011835515, -0.03970624
1631440565590, -0.272939, 2.183512, 9.476549, 0.14278975, 0.0081703225, -0.037873644
1631440565592, -0.25857377, 2.2290018, 9.416695, 0.1244638, 0.0032834008, -0.03604105
1631440565594, -0.22744916, 2.2481554, 9.399935, 0.1049161, -0.0022143866, -0.04153884
1631440565596, -0.15322891, 2.27928, 9.411906, 0.09025534, -0.013209961, -0.044593163
1631440565598, -0.12449849, 2.2984335, 9.447819, 0.082924955, -0.017486017, -0.05009095
1631440565600, -0.1604115, 2.3535004, 9.512463, 0.07742717, -0.022983804, -0.053145275
1631440565602, -0.18674773, 2.3463178, 9.526828, 0.06887506, -0.03520111, -0.053145275
1631440565606, -0.272939, 2.267309, 9.512463, 0.055436023, -0.05535966, -0.050701816
1631440565610, -0.272939, 2.2146366, 9.452607, 0.04505131, -0.07429648, -0.049480084
1631440565614, -0.21308395, 2.195483, 9.416695, 0.035888333, -0.092622444, -0.040317107
1631440565616, -0.21308395, 2.2026656, 9.445425, 0.029168816, -0.09445504, -0.035430185
1631440565618, -0.21068975, 2.2218192, 9.462184, 0.024892759, -0.09323331, -0.03481932
1631440565620, -0.21787235, 2.243367, 9.502886, 0.022449298, -0.088346384, -0.03176499
1631440565622, -0.23223756, 2.2840683, 9.541193, 0.01817324, -0.0828486, -0.028099801
1631440565626, -0.21068975, 2.3295584, 9.541193, 0.015118915, -0.07124216, -0.025045475
1631440565628, -0.19153613, 2.3439236, 9.510069, 0.015118915, -0.06391177, -0.026267206
1631440565632, -0.1364695, 2.3558946, 9.457396, 0.012675454, -0.054137934, -0.027488936
1631440565634, -0.1364695, 2.3511062, 9.44303, 0.015118915, -0.044364087, -0.027488936
1631440565638, -0.11492168, 2.336741, 9.409512, 0.012675454, -0.03153592, -0.028710667
1631440565640, -0.12928689, 2.3247697, 9.395146, 0.013286319, -0.02603813, -0.030543262
1631440565642, -0.12210429, 2.327164, 9.380781, 0.012064588, -0.013820826, -0.032375857
1631440565646, -0.12210429, 2.3080103, 9.397541, 0.013286319, 0.006337727, -0.032986723
1631440565648, -0.1316811, 2.3056161, 9.4143, 0.01695151, 0.006948592, -0.03359759
1631440565650, -0.17238252, 2.3056161, 9.471761, 0.016340645, 0.010002919, -0.030543262
1631440565652, -0.22026655, 2.267309, 9.555558, 0.021227567, 0.008781188, -0.032375857
1631440565654, -0.22026655, 2.267309, 9.555558, 0.02733622, 0.013057245, -0.029932396
1631440565658, -0.23702596, 2.2409728, 9.59626, 0.033444874, 0.023441954, -0.026267206
1631440565662, -0.24899697, 2.2290018, 9.531616, 0.04260785, 0.035659257, -0.028099801
1631440565663, -0.25139117, 2.2529438, 9.510069, 0.041996986, 0.039935317, -0.028710667
1631440565666, -0.24181437, 2.2984335, 9.478944, 0.04016439, 0.047265697, -0.026267206
1631440565670, -0.24420857, 2.3247697, 9.476549, 0.038331795, 0.042378776, -0.02687807
1631440565672, -0.22026655, 2.3558946, 9.510069, 0.039553523, 0.037491854, -0.02687807
1631440565674, -0.21068975, 2.3511062, 9.519646, 0.041996986, 0.03504839, -0.02687807
1631440565675, -0.19871874, 2.3463178, 9.536405, 0.040775254, 0.030772336, -0.028710667
1631440565678, -0.19153613, 2.3630772, 9.538799, 0.040775254, 0.027718011, -0.02565634
1631440565682, -0.17238252, 2.3870192, 9.522039, 0.0364992, 0.024663685, -0.02687807
1631440565683, -0.17956513, 2.3870192, 9.495703, 0.0364992, 0.018555032, -0.028099801
1631440565686, -0.19632454, 2.360683, 9.474155, 0.031001411, 0.0173333, -0.029321533
1631440565688, -0.20111294, 2.3558946, 9.462184, 0.02855795, 0.016722437, -0.03176499
1631440565690, -0.21068975, 2.3511062, 9.455002, 0.02367103, 0.013057245, -0.028710667
1631440565692, -0.21547815, 2.3391352, 9.435848, 0.021227567, 0.011224649, -0.029321533
1631440565696, -0.23463176, 2.3080103, 9.44303, 0.012675454, 0.0051159966, -0.029321533
1631440565698, -0.24899697, 2.3080103, 9.440637, 0.010231993, 0.0026725354, -0.028099801
1631440565700, -0.23463176, 2.2936451, 9.423877, 0.005955936, -0.0016035213, -0.028099801
1631440565702, -0.22266077, 2.315193, 9.409512, 0.0022907446, -0.004046982, -0.029932396
1631440565704, -0.22266077, 2.3199813, 9.395146, 0.0016798794, -0.005879578, -0.028099801
1631440565708, -0.22505496, 2.3175871, 9.344869, -0.0056505036, -0.0077121737, -0.029932396
1631440565714, -0.22505496, 2.3295584, 9.361628, -0.018478673, -0.009544769, -0.029932396
1631440565718, -0.21308395, 2.3247697, 9.399935, -0.018478673, -0.010155635, -0.02687807
1631440565720, -0.21308395, 2.3127987, 9.395146, -0.02275473, -0.011377365, -0.028099801
1631440565722, -0.22266077, 2.3104045, 9.404723, -0.02397646, -0.0052687125, -0.02687807
1631440565724, -0.19871874, 2.3127987, 9.423877, -0.02397646, -9.92656E-4, -0.02565634
1631440565726, -0.21308395, 2.2960393, 9.419088, -0.027030786, 0.005726862, -0.029321533
1631440565728, -0.21308395, 2.2960393, 9.416695, -0.029474247, 0.006948592, -0.029932396
1631440565730, -0.23223756, 2.2960393, 9.43106, -0.034972034, 0.018555032, -0.02687807
1631440565731, -0.2753332, 2.2768857, 9.45979, -0.033750303, 0.025274549, -0.026267206
1631440565734, -0.2753332, 2.2768857, 9.45979, -0.039858956, 0.036270123, -0.023823744
1631440565740, -0.23702596, 2.2840683, 9.445425, -0.04352415, 0.057650406, -0.020158553
1631440565742, -0.2896984, 2.2936451, 9.43106, -0.04718934, 0.06803512, -0.020158553
1631440565744, -0.31124622, 2.3008277, 9.409512, -0.047800206, 0.06803512, -0.019547688
1631440565748, -0.30406362, 2.2122424, 9.409512, -0.051465396, 0.09246973, -0.02687807
1631440565752, -0.30645782, 2.1452048, 9.4143, -0.055741455, 0.14011721, -0.034208454
1631440565756, -0.29209262, 2.0566192, 9.366416, -0.06490443, 0.18043432, -0.040317107
1631440565758, -0.35434186, 1.9129672, 9.301773, -0.06918049, 0.19387336, -0.0421497
1631440565760, -0.45968673, 1.5490485, 9.198822, -0.081397794, 0.22502749, -0.044593163
1631440565762, -0.4237737, 1.5346833, 9.07193, -0.10399981, 0.27878362, -0.056199603
1631440565764, -0.16998832, 1.6950948, 9.119814, -0.12110403, 0.30260736, -0.069027774
1631440565766, 0.107739076, 1.8746599, 9.225159, -0.13820826, 0.3093269, -0.08674286
1631440565770, 0.33518824, 2.0757728, 9.366416, -0.14676037, 0.28916833, -0.106901415
1631440565772, 0.22744916, 2.183512, 9.522039, -0.14370605, 0.27206412, -0.11178834
1631440565776, 0.09816227, 2.2505496, 9.627384, -0.113162786, 0.15722144, -0.12644911
1631440565778, 0.02633622, 2.2816741, 9.701605, -0.10399981, 0.12423472, -0.12950343
1631440565780, -0.10055647, 2.3199813, 9.838074, -0.08078693, 0.060704734, -0.13194689
1631440565782, -0.16759412, 2.360683, 9.969755, -0.066737026, 0.03443753, -0.13500121
1631440565784, -0.18435353, 2.3750482, 10.032004, -0.041691553, -9.92656E-4, -0.13744467
1631440565786, -0.17238252, 2.3942018, 10.146926, -0.019700404, -0.014431692, -0.14477506
1631440565788, -0.15801731, 2.4013844, 10.19481, -0.00870483, -0.016875152, -0.1459968
1631440565794, -0.16998832, 2.3463178, 10.132561, 0.033444874, 0.010613783, -0.15271631
1631440565796, -0.18195933, 2.2936451, 10.070312, 0.043218717, 0.016111571, -0.15393804
1631440565798, -0.18674773, 2.2768857, 10.039187, 0.04810564, 0.016111571, -0.15271631
1631440565800, -0.18195933, 2.2625206, 10.005669, 0.052381694, 0.018555032, -0.15210545
1631440565802, -0.18435353, 2.2146366, 9.92666, 0.060322944, 0.0173333, -0.14966199
1631440565804, -0.15801731, 2.1643584, 9.838074, 0.06582073, 0.013057245, -0.1459968
1631440565808, -0.17717093, 2.1404164, 9.672874, 0.069485925, -0.003436117, -0.14172074
1631440565810, -0.19393034, 2.1068976, 9.605837, 0.069485925, -0.018096883, -0.13988814
1631440565814, -0.18674773, 2.054225, 9.493309, 0.062155537, -0.019929478, -0.13500121
1631440565816, -0.19393034, 2.0374656, 9.407118, 0.05299256, -0.015653422, -0.13194689
1631440565818, -0.20111294, 2.0350714, 9.378387, 0.050549097, -0.012599096, -0.12767084
1631440565824, -0.24899697, 2.1045034, 9.383176, 0.013286319, 0.0032834008, -0.10934488
1631440565828, -0.260968, 2.1380222, 9.402329, -0.012370021, 0.024663685, -0.095294975
1631440565830, -0.2801216, 2.1428106, 9.409512, -0.025809057, 0.039935317, -0.08735373
1631440565834, -0.2633622, 2.1906946, 9.364022, -0.05207626, 0.07047858, -0.07696902
1631440565836, -0.23942018, 2.2050598, 9.31135, -0.06918049, 0.08575021, -0.073303826
1631440565838, -0.23223756, 2.219425, 9.29459, -0.085673854, 0.091248, -0.06536258
1631440565844, -0.2753332, 2.2481554, 9.395146, -0.117438845, 0.080252424, -0.05681047
1631440565846, -0.31364042, 2.2122424, 9.455002, -0.12660182, 0.0735329, -0.05131268
1631440565848, -0.33518824, 2.1930888, 9.493309, -0.13026701, 0.071700305, -0.051923547
1631440565850, -0.35434186, 2.1571758, 9.5795, -0.13820826, 0.06253733, -0.049480084
1631440565852, -0.29688102, 2.1068976, 9.641749, -0.13942999, 0.059483003, -0.047036625
1631440565854, -0.29688102, 2.1068976, 9.641749, -0.14248432, 0.061926465, -0.048258353
1631440565856, -0.22744916, 2.0949266, 9.675268, -0.14492778, 0.064369924, -0.052534413
1631440565862, -0.20829555, 2.0398598, 9.80695, -0.14553864, 0.058872137, -0.059864793
1631440565868, -0.19871874, 2.0015526, 9.948207, -0.13332134, 0.038713586, -0.06780604
1631440565876, -0.22744916, 1.9752164, 10.099042, -0.09483683, 0.01366811, -0.08246681
1631440565878, -0.21068975, 1.9776106, 10.09186, -0.08689558, 0.015500706, -0.08552113
1631440565882, -0.19153613, 2.018312, 10.017639, -0.06734789, 0.020387627, -0.09162979
1631440565884, -0.19632454, 2.042254, 9.998486, -0.056352317, 0.020387627, -0.096516706
1631440565888, -0.2753332, 2.0853498, 10.020034, -0.03680463, 0.011224649, -0.100792766
1631440565890, -0.31603462, 2.0853498, 10.036793, -0.022143865, 0.0051159966, -0.1020145
1631440565892, -0.38307226, 2.099715, 10.029611, -0.016646078, 0.0020616702, -0.10262536
1631440565896, -0.3854665, 2.1021092, 10.00088, 0.0065668016, -0.0077121737, -0.09896017
1631440565900, -0.4333505, 2.1068976, 9.929053, 0.024892759, -0.013820826, -0.09896017
1631440565902, -0.4429273, 2.1308396, 9.883564, 0.025503624, -0.015653422, -0.100792766
1631440565904, -0.4429273, 2.1260512, 9.862016, 0.034055736, -0.018096883, -0.0983493
1631440565906, -0.4333505, 2.1332338, 9.80695, 0.03772093, -0.014431692, -0.09773844
1631440565908, -0.4237737, 2.1380222, 9.735124, 0.041996986, -0.0107665, -0.0983493
1631440565910, -0.4189853, 2.1332338, 9.69921, 0.043218717, -0.008323039, -0.09896017
1631440565914, -0.46447513, 2.087744, 9.632173, 0.043829583, -0.005879578, -0.09590584
1631440565916, -0.49320555, 2.1332338, 9.622596, 0.04260785, -0.003436117, -0.09590584
1631440565917, -0.51954174, 2.1404164, 9.62499, 0.04260785, -0.005879578, -0.09040806
1631440565920, -0.5243302, 2.1332338, 9.620202, 0.040775254, -0.0046578473, -0.09101892
1631440565924, -0.46208093, 2.1452048, 9.510069, 0.03283401, 0.018555032, -0.089186326
1631440565930, -0.4261679, 2.2122424, 9.361628, 0.01450805, 0.035659257, -0.089186326
1631440565932, -0.4141969, 2.2218192, 9.299378, 0.009010263, 0.037491854, -0.08857546
1631440565936, -0.40222588, 2.2457612, 9.316138, -0.0025961774, 0.039935317, -0.089186326
1631440565942, -0.40940848, 2.2218192, 9.359234, -0.014813482, 0.031994067, -0.086132
1631440565944, -0.39264908, 2.2242134, 9.368811, -0.0154243475, 0.020387627, -0.08735373
1631440565948, -0.39264908, 2.2481554, 9.483732, -0.0154243475, -3.8179077E-4, -0.084910266
1631440565950, -0.39743748, 2.2481554, 9.517251, -0.014813482, -0.015653422, -0.08552113
1631440565952, -0.4357447, 2.267309, 9.577106, -0.011759156, -0.030314188, -0.08368854
1631440565956, -0.45489833, 2.2840683, 9.569923, -0.0062613687, -0.049861874, -0.08307768
1631440565960, -0.45729253, 2.2864625, 9.538799, -0.004428773, -0.06269005, -0.077579886
1631440565962, -0.46208093, 2.2840683, 9.483732, -0.0013744468, -0.06757697, -0.07391469
1631440565964, -0.4429273, 2.2840683, 9.426271, -0.0062613687, -0.06818783, -0.07452556
1631440565966, -0.4405331, 2.3080103, 9.38557, -0.009315695, -0.0687987, -0.070249505
1631440565968, -0.4333505, 2.3175871, 9.371204, -0.010537425, -0.06757697, -0.06963864
1631440565970, -0.4189853, 2.3295584, 9.337686, -0.018478673, -0.065133505, -0.06658431
1631440565972, -0.39264908, 2.3343468, 9.285013, -0.01786781, -0.06330091, -0.064751714
1631440565977, -0.39025488, 2.3247697, 9.273043, -0.027641652, -0.059024855, -0.058643065
1631440565980, -0.34715924, 2.2888567, 9.287408, -0.033750303, -0.056581393, -0.058643065
1631440565982, -0.34715924, 2.2840683, 9.31135, -0.03680463, -0.052305337, -0.054367006
1631440565984, -0.34237084, 2.291251, 9.306561, -0.03924809, -0.04314236, -0.052534413
1631440565986, -0.34715924, 2.303222, 9.301773, -0.04596761, -0.038255434, -0.04886922
1631440565988, -0.34715924, 2.3175871, 9.308955, -0.05085453, -0.032757647, -0.04642576
1631440565990, -0.36391866, 2.3175871, 9.320927, -0.056352317, -0.027870728, -0.044593163
1631440565992, -0.38307226, 2.3127987, 9.34008, -0.061850104, -0.018096883, -0.04520403
1631440565996, -0.36870706, 2.303222, 9.38557, -0.065515295, -0.008933905, -0.04153884
1631440565998, -0.36870706, 2.2960393, 9.407118, -0.06734789, 8.399397E-4, -0.0421497
1631440566000, -0.37110126, 2.291251, 9.419088, -0.06734789, 0.0032834008, -0.03970624
1631440566002, -0.36391866, 2.2744915, 9.45979, -0.06856962, 0.010002919, -0.039095376
1631440566004, -0.33997664, 2.2601264, 9.493309, -0.06307184, 0.016111571, -0.036651913
1631440566006, -0.33039984, 2.2649148, 9.541193, -0.060628377, 0.023441954, -0.03726278
1631440566010, -0.32321724, 2.2744915, 9.569923, -0.055741455, 0.033826664, -0.03481932
1631440566012, -0.35913026, 2.2649148, 9.639356, -0.05024367, 0.037491854, -0.032986723
1631440566016, -0.35913026, 2.2577322, 9.668086, -0.039858956, 0.04604397, -0.029932396
1631440566018, -0.35913026, 2.2625206, 9.680057, -0.034972034, 0.049098294, -0.029932396
1631440566020, -0.36152446, 2.2409728, 9.692028, -0.028863383, 0.051541757, -0.029321533
1631440566026, -0.38307226, 2.2481554, 9.720758, -0.011148291, 0.060704734, -0.030543262
1631440566028, -0.39264908, 2.2529438, 9.723152, -0.009315695, 0.06375906, -0.026267206
1631440566032, -0.4285621, 2.2457612, 9.747094, 0.0016798794, 0.06681339, -0.02565634
1631440566034, -0.4333505, 2.255338, 9.754277, 0.0010690142, 0.069867715, -0.026267206
1631440566038, -0.4261679, 2.2505496, 9.768642, 0.010231993, 0.07047858, -0.018936822
1631440566040, -0.39504328, 2.2577322, 9.768642, 0.011453724, 0.07414377, -0.018936822
1631440566042, -0.3854665, 2.267309, 9.747094, 0.013286319, 0.08269588, -0.017715093
1631440566050, -0.46447513, 2.255338, 9.751883, 0.01817324, 0.075976364, -0.015271631
1631440566052, -0.46926352, 2.2266076, 9.763854, 0.020616703, 0.07414377, -0.014049901
1631440566054, -0.48602295, 2.231396, 9.763854, 0.02367103, 0.06925685, -0.012217305
1631440566058, -0.49081135, 2.2361844, 9.751883, 0.024281893, 0.061926465, -0.010995574
1631440566060, -0.49559975, 2.2242134, 9.737517, 0.02611449, 0.05826127, -0.009162978
1631440566062, -0.49081135, 2.2098482, 9.723152, 0.025503624, 0.05459608, -0.007330383
1631440566064, -0.49320555, 2.2146366, 9.720758, 0.024892759, 0.047876563, -0.007941248
1631440566068, -0.49799395, 2.2170308, 9.720758, 0.020616703, 0.04298964, -0.0067195175
1631440566070, -0.49320555, 2.2122424, 9.732729, 0.017562376, 0.041157044, -0.007941248
1631440566072, -0.48841715, 2.1763294, 9.737517, 0.016340645, 0.037491854, -0.002443461
1631440566078, -0.45729253, 2.195483, 9.747094, 0.007788532, 0.033826664, -0.0018325958
1631440566080, -0.44532153, 2.1811178, 9.749489, 0.0041233404, 0.036270123, -6.1086525E-4
1631440566082, -0.4357447, 2.1883004, 9.725547, 0.00290161, 0.03688099, 0.0
1631440566084, -0.47884035, 2.2002714, 9.720758, -0.001985312, 0.032604933, -0.0012217305
1631440566090, -0.51235914, 2.1619642, 9.749489, -0.010537425, 0.021609358, 0.0
1631440566092, -0.51954174, 2.183512, 9.756671, -0.012370021, 0.02649628, 0.0036651916
1631440566096, -0.5243302, 2.2002714, 9.751883, -0.016035212, 0.014278975, 0.007941248
1631440566100, -0.49320555, 2.1787236, 9.761459, -0.018478673, 0.008781188, 0.01160644
1631440566102, -0.49081135, 2.1787236, 9.759066, -0.019700404, 0.006337727, 0.010995574
1631440566104, -0.50278234, 2.1739352, 9.768642, -0.019089539, -3.8179077E-4, 0.01160644
1631440566106, -0.50996494, 2.1499932, 9.794978, -0.018478673, -0.0071013086, 0.010995574
1631440566108, -0.50757074, 2.1428106, 9.804555, -0.021533, -0.01198823, 0.01160644
1631440566110, -0.50278234, 2.1260512, 9.821315, -0.019700404, -0.015653422, 0.007330383
1631440566112, -0.49799395, 2.1164744, 9.857227, -0.016035212, -0.016264288, 0.007330383
1631440566116, -0.47405192, 2.1140802, 9.893141, -0.013591751, -0.022372939, 0.005497787
1631440566118, -0.4381389, 2.1140802, 9.881169, -0.006872234, -0.022372939, 0.005497787
1631440566122, -0.4237737, 2.1260512, 9.876381, -0.0038179078, -0.021762075, 0.0
1631440566124, -0.39743748, 2.1045034, 9.8955345, 0.0016798794, -0.022372939, 0.0012217305
1631440566126, -0.3878607, 2.0925324, 9.869199, 0.010842858, -0.020540344, -0.0018325958
1631440566130, -0.40222588, 2.0901382, 9.854834, 0.01817324, -0.019929478, -0.0061086523
1631440566136, -0.36631286, 2.0685902, 9.814132, 0.035888333, -0.015042556, -0.010995574
1631440566138, -0.35913026, 2.0614076, 9.802161, 0.04016439, -0.016875152, -0.01038471
1631440566144, -0.39025488, 2.0709844, 9.737517, 0.049938235, -0.008933905, -0.015882496
1631440566148, -0.4165911, 2.0709844, 9.703999, 0.04932737, 2.2907447E-4, -0.018936822
1631440566151, -0.47165772, 2.1308396, 9.59626, 0.048716504, 0.009392053, -0.015882496
1631440566154, -0.47405192, 2.1404164, 9.586683, 0.04932737, 0.010613783, -0.015882496
1631440566156, -0.48841715, 2.1404164, 9.589077, 0.04810564, 0.011835515, -0.016493361
1631440566158, -0.49559975, 2.135628, 9.581895, 0.043829583, 0.011835515, -0.015882496
1631440566164, -0.51714754, 2.1308396, 9.572318, 0.04138612, 0.016722437, -0.014049901
1631440566168, -0.50517654, 2.1452048, 9.55077, 0.039553523, 0.013057245, -0.01282817
1631440566176, -0.49081135, 2.1452048, 9.500492, 0.027947085, 0.001450805, -0.010995574
1631440566178, -0.49081135, 2.1428106, 9.483732, 0.027947085, -0.0022143866, -0.007941248
1631440566186, -0.4429273, 2.1284454, 9.464579, 0.013286319, -0.0064904434, -0.0030543262
1631440566188, -0.4405331, 2.1068976, 9.462184, 0.010842858, -0.0071013086, -0.004886922
1631440566192, -0.40462008, 2.1068976, 9.450213, 0.0035124752, -0.0107665, -0.0030543262
1631440566194, -0.39504328, 2.1045034, 9.455002, 4.5814895E-4, -0.009544769, -0.004886922
1631440566198, -0.37110126, 2.1021092, 9.44303, -0.0025961774, -0.012599096, -0.0067195175
1631440566202, -0.35673606, 2.1164744, 9.438242, -0.00992656, -0.017486017, -0.007941248
1631440566204, -0.35194764, 2.0925324, 9.43106, -0.007483099, -0.017486017, -0.009162978
1631440566206, -0.37588966, 2.087744, 9.416695, -0.014202617, -0.018096883, -0.009773844
1631440566208, -0.37349546, 2.0949266, 9.416695, -0.014202617, -0.017486017, -0.007330383
1631440566216, -0.37110126, 2.0925324, 9.438242, -0.027641652, 0.0075594573, -0.005497787
1631440566222, -0.32561144, 2.1092918, 9.426271, -0.03313944, 0.006337727, -0.0030543262
1631440566228, -0.30885202, 2.0925324, 9.481338, -0.039858956, 0.012446379, -0.004886922
1631440566230, -0.33279404, 2.1045034, 9.495703, -0.038026363, 0.015500706, -0.004276057
1631440566234, -0.36870706, 2.1045034, 9.545981, -0.039858956, 0.009392053, -0.0067195175
1631440566236, -0.37588966, 2.1092918, 9.545981, -0.041080687, 0.008781188, -0.009162978
1631440566240, -0.36631286, 2.099715, 9.555558, -0.03924809, 0.0081703225, -0.009773844
1631440566246, -0.3854665, 2.099715, 9.589077, -0.028252518, 0.005726862, -0.013439035
1631440566248, -0.38307226, 2.1021092, 9.586683, -0.027641652, 0.005726862, -0.013439035
1631440566252, -0.37349546, 2.0925324, 9.59626, -0.023365596, 0.005726862, -0.012217305
1631440566254, -0.37349546, 2.0925324, 9.59626, -0.022143865, 0.0045051314, -0.01282817
1631440566256, -0.38067806, 2.0973208, 9.605837, -0.020922136, 0.01366811, -0.01160644
1631440566258, -0.37828386, 2.0973208, 9.598654, -0.018478673, 0.01366811, -0.010995574
1631440566262, -0.37349546, 2.1308396, 9.5795, -0.018478673, 0.015500706, -0.008552114
1631440566268, -0.3878607, 2.1428106, 9.83568, -0.0056505036, 0.042378776, -0.0067195175
1631440566270, -0.4141969, 2.1930888, 10.051158, 0.030390546, 0.084528476, -0.004886922
1631440566272, -0.39983168, 2.243367, 10.278607, 0.0804815, 0.13767375, -0.007941248
1631440566274, -0.37588966, 2.2697031, 10.312126, 0.10919216, 0.16821702, -0.007330383
1631440566276, -0.34237084, 2.2816741, 10.302549, 0.17211129, 0.2195297, -0.0067195175
1631440566278, -0.31124622, 2.2864625, 10.187628, 0.19898935, 0.24335344, -0.0030543262
1631440566280, -0.30166942, 2.2816741, 10.108619, 0.24663684, 0.2757293, -6.1086525E-4
1631440566282, -0.2873042, 2.2409728, 9.960178, 0.2845105, 0.3093269, 0.004886922
1631440566286, -0.29448682, 2.111686, 9.656115, 0.33337972, 0.39240456, 0.021380283
1631440566298, -0.4285621, 2.1068976, 8.818144, 0.33582318, 0.4986951, 0.037873644
1631440566300, -0.4261679, 2.1188686, 8.629003, 0.3052799, 0.48220176, 0.03726278
1631440566302, -0.4141969, 2.1212628, 8.5499935, 0.28878653, 0.46998444, 0.03726278
1631440566306, -0.4165911, 2.1571758, 8.334516, 0.1965459, 0.4021784, 0.02443461
1631440566308, -0.4165911, 2.1739352, 8.286632, 0.16905695, 0.3844633, 0.019547688
1631440566309, -0.4141969, 2.2026656, 8.221988, 0.11407909, 0.34475708, 0.0061086523
1631440566311, -0.49320555, 2.291251, 8.193257, 0.056046885, 0.30627257, -0.004276057
1631440566314, -0.50278234, 2.2936451, 8.205229, 0.02367103, 0.2775619, -0.009773844
1631440566318, -0.58897364, 2.336741, 8.332121, -0.09666943, 0.17249307, -0.031154128
1631440566320, -0.62728083, 2.3558946, 8.384793, -0.1253801, 0.13950635, -0.032375857
1631440566322, -0.7062895, 2.3535004, 8.50211, -0.18219055, 0.075976364, -0.040317107
1631440566324, -0.7613561, 2.3343468, 8.6218195, -0.20845777, 0.041157044, -0.04337143
1631440566326, -0.8499416, 2.3104045, 8.777443, -0.28053987, -0.05352707, -0.04886922
1631440566328, -0.89303726, 2.3056161, 8.856451, -0.29947668, -0.08407033, -0.049480084
1631440566332, -1.0055647, 2.2361844, 9.289802, -0.3538437, -0.17081319, -0.05009095
1631440566336, -1.0390835, 2.2409728, 9.462184, -0.40515637, -0.2673299, -0.04153884
1631440566338, -1.0223241, 2.2505496, 9.555558, -0.41431937, -0.28871018, -0.03726278
1631440566340, -0.9648633, 2.2457612, 9.749489, -0.42714754, -0.3216969, -0.030543262
1631440566342, -0.9504981, 2.2409728, 9.840468, -0.43081272, -0.3375794, -0.02565634
1631440566344, -0.91697925, 2.2385786, 10.022428, -0.4259258, -0.3571271, -0.017715093
1631440566346, -0.8451532, 2.2505496, 10.204387, -0.41981715, -0.3675118, -0.007941248
1631440566352, -0.6512229, 2.1859062, 10.61619, -0.3642284, -0.34857497, 0.009773844
1631440566356, -0.58657944, 2.1571758, 10.688016, -0.3129157, -0.31558827, 0.016493361
1631440566360, -0.50996494, 2.1260512, 10.759842, -0.25060746, -0.27221683, 0.021380283
1631440566364, -0.4309563, 2.066196, 10.716746, -0.18585575, -0.22640193, 0.02687807
1631440566368, -0.36152446, 2.0398598, 10.575488, -0.10888673, -0.16653714, 0.023823744
1631440566370, -0.34715924, 2.006341, 10.52521, -0.09056077, -0.1512655, 0.021380283
1631440566372, -0.32321724, 1.9776106, 10.355222, -0.05757405, -0.12377657, 0.019547688
1631440566374, -0.32321724, 1.9776106, 10.355222, -0.026419923, -0.09506591, 0.016493361
1631440566378, -0.35434186, 1.970428, 10.247482, 0.01450805, -0.04925101, 0.007941248
1631440566380, -0.37588966, 1.970428, 10.154109, 0.04016439, -0.018707749, 0.004276057
1631440566382, -0.36870706, 1.9776106, 10.12059, 0.046883907, -0.0052687125, 0.0030543262
1631440566384, -0.4189853, 1.9800048, 10.024822, 0.063988134, 0.02405282, 0.0
1631440566390, -0.45010993, 2.0733786, 9.890746, 0.10247265, 0.08513934, -0.002443461
1631440566392, -0.50996494, 2.1164744, 9.794978, 0.107359566, 0.096134916, -0.0012217305
1631440566394, -0.50996494, 2.1164744, 9.794978, 0.11652254, 0.11385001, 0.0012217305
1631440566396, -0.51235914, 2.15957, 9.718364, 0.12385293, 0.123623855, 0.004886922
1631440566400, -0.5386954, 2.2122424, 9.636961, 0.1330159, 0.13828462, 0.010995574
1631440566404, -0.5602432, 2.2361844, 9.498097, 0.12935072, 0.14194982, 0.018325957
1631440566406, -0.5722142, 2.2649148, 9.423877, 0.122020334, 0.13645202, 0.022602014
1631440566410, -0.56982, 2.2697031, 9.359234, 0.11285736, 0.13217597, 0.02687807
1631440566414, -0.5602432, 2.2505496, 9.261071, 0.09025534, 0.11690433, 0.031154128
1631440566418, -0.557849, 2.2385786, 9.2347355, 0.06765333, 0.09857838, 0.032375857
1631440566420, -0.545878, 2.2266076, 9.215582, 0.051159963, 0.08269588, 0.03176499
1631440566422, -0.5482722, 2.2218192, 9.2107935, 0.043829583, 0.07841983, 0.032986723
1631440566426, -0.5315128, 2.1978772, 9.229947, 0.011453724, 0.05093089, 0.03176499
1631440566428, -0.5482722, 2.1883004, 9.239524, 0.0041233404, 0.04298964, 0.032375857
1631440566430, -0.5410896, 2.2050598, 9.2347355, -0.009315695, 0.031994067, 0.030543262
1631440566432, -0.5363012, 2.1643584, 9.263466, -0.01786781, 0.025274549, 0.030543262
1631440566434, -0.5363012, 2.1643584, 9.263466, -0.029474247, 0.011835515, 0.028099801
1631440566436, -0.51954174, 2.1667526, 9.289802, -0.041691553, 0.0020616702, 0.027488936
1631440566439, -0.49081135, 2.147599, 9.354445, -0.058184914, -0.0052687125, 0.02687807
1631440566444, -0.47884035, 2.1284454, 9.471761, -0.06918049, -0.012599096, 0.02565634
1631440566446, -0.46208093, 2.1212628, 9.512463, -0.0759, -0.016264288, 0.02565634
1631440566448, -0.46926352, 2.1188686, 9.536405, -0.081397794, -0.015042556, 0.021991149
1631440566452, -0.4357447, 2.0973208, 9.651326, -0.081397794, -0.014431692, 0.021991149
1631440566454, -0.4357447, 2.0973208, 9.651326, -0.0795652, -0.013820826, 0.02076942
1631440566458, -0.4309563, 2.0925324, 9.703999, -0.07223482, -0.005879578, 0.021991149
1631440566460, -0.4189853, 2.0853498, 9.723152, -0.06918049, -0.0064904434, 0.02076942
1631440566462, -0.4189853, 2.0853498, 9.739912, -0.06490443, -0.0046578473, 0.021380283
1631440566466, -0.4189853, 2.0901382, 9.768642, -0.051465396, 0.0051159966, 0.019547688
1631440566468, -0.4213795, 2.0853498, 9.778219, -0.04596761, 0.005726862, 0.019547688
1631440566472, -0.40940848, 2.0853498, 9.814132, -0.034972034, 0.013057245, 0.017715093
1631440566474, -0.40940848, 2.0853498, 9.814132, -0.026419923, 0.018555032, 0.017715093
1631440566478, -0.39025488, 2.0518308, 9.799767, -0.0154243475, 0.023441954, 0.015271631
1631440566480, -0.39504328, 2.066196, 9.787796, -0.0050396384, 0.027718011, 0.016493361
1631440566482, -0.40701428, 2.0638018, 9.775825, 0.0016798794, 0.0313832, 0.013439035
1631440566486, -0.37349546, 2.054225, 9.723152, 0.010231993, 0.03504839, 0.010995574
1631440566488, -0.37828386, 2.0470424, 9.711182, 0.01450805, 0.03810272, 0.007330383
1631440566492, -0.37588966, 2.0709844, 9.62499, 0.016340645, 0.03932445, 0.007941248
1631440566494, -0.37588966, 2.0709844, 9.62499, 0.016340645, 0.036270123, 0.0061086523
1631440566496, -0.38067806, 2.0614076, 9.608231, 0.019394971, 0.03443753, 0.004276057
1631440566498, -0.3854665, 2.054225, 9.581895, 0.020616703, 0.0332158, 0.004886922
1631440566500, -0.38307226, 2.0614076, 9.543588, 0.017562376, 0.030161472, 0.004886922
1631440566502, -0.3854665, 2.0614076, 9.538799, 0.01695151, 0.02893974, 0.002443461
1631440566505, -0.3854665, 2.0829554, 9.490914, 0.012675454, 0.020998493, -6.1086525E-4
1631440566508, -0.37828386, 2.087744, 9.488521, 0.012675454, 0.018555032, 0.0018325958
1631440566510, -0.35913026, 2.0805612, 9.466972, 0.0065668016, 0.01488984, -6.1086525E-4
1631440566516, -0.36391866, 2.066196, 9.435848, -7.6358154E-4, 0.0045051314, -0.004276057
1631440566520, -0.36631286, 2.0590134, 9.428665, -0.00992656, 0.0020616702, -0.0036651916
1631440566528, -0.35913026, 2.0757728, 9.4143, -0.030085113, 2.2907447E-4, -0.0067195175
1631440566530, -0.35194764, 2.0853498, 9.416695, -0.033750303, -9.92656E-4, -0.0036651916
1631440566532, -0.36152446, 2.0925324, 9.438242, -0.038026363, -0.0016035213, -0.005497787
1631440566533, -0.36152446, 2.0925324, 9.438242, -0.04230242, 2.2907447E-4, -0.005497787
1631440566538, -0.35434186, 2.0901382, 9.466972, -0.049021937, 8.399397E-4, -0.0067195175
1631440566542, -0.35673606, 2.0925324, 9.510069, -0.054519724, 0.0020616702, -0.0036651916
1631440566544, -0.35194764, 2.0853498, 9.519646, -0.056352317, -9.92656E-4, -0.0030543262
1631440566550, -0.3878607, 2.0757728, 9.574712, -0.059406646, 0.0020616702, 0.0012217305
